"rt","stimulus","key_press","trial_type","trial_index","time_elapsed","internal_node_id","test_part","pair","pair_validity","trial_validity","pair_trials_per_block","pair_best_choice","reward_type","correct_response","stim_left","stim_right","stim_best_choice","subjectkey","src_subject_id","site","interview_date","interview_age","sex","trial","block","accuracy","stim_feedback","stim_set","reward_set","reward_tally"
"560.0000000558794","<h3 style=""color:#0ed145;"">Welcome to the experiment!</h3><p>Press the spacebar continue.</p>","32","html-keyboard-response","0","566","0.0-0.0","","","","","","","","","","","","","","","","","","","","","","","",""
"396.9999998807907","<p>In this task you will see two pictures side-by-side on the computer screen.</p><p>In each pair of pictures you see on the screen, one picture will be better than the other.</p><p>You need to figure out which picture in each pair is the better one.</p><p>Press the spacebar continue.</p>","32","html-keyboard-response","1","965","0.0-1.0","","","","","","","","","","","","","","","","","","","","","","","",""
"331.99999993667006","<p>The better picture in each pair will be more likely to either</p><p>A) win you some points,</p><p>or</p><p>B) allow you to keep the points you've already earned.</p><p>Press the spacebar continue.</p>","32","html-keyboard-response","2","1297","0.0-2.0","","","","","","","","","","","","","","","","","","","","","","","",""
"649.0000002086163","<p>On those trials where you can A) win points, you will want to select the picture most likely to earn points:</p><img style=""height:100px; width:100px"" src=""stim/winpoints.bmp""</img><p>Because if you keep seeing this feedback:</p><img style=""height:125px; width:125px"" src=""stim/not_winner.png""></img><p>you probably aren't selecting the best picture...</p><p>Press the spacebar continue.</p>","32","html-keyboard-response","3","1949","0.0-3.0","","","","","","","","","","","","","","","","","","","","","","","",""
"451.9999995827675","<p>On those trials where you can B) lose points, you will want to select the picture most likely to give this feedback:</p><img style=""height:125px; width:125px"" src=""stim/keep_points.png""></img><p>Because if you keep seeing this:</p><img style=""height:100px; width:100px"" src=""stim/losepoints.bmp""></img><p>you probably aren't selecting the best picture...</p><p>Press the spacebar continue.</p>","32","html-keyboard-response","4","2405","0.0-4.0","","","","","","","","","","","","","","","","","","","","","","","",""
"631.0000000521541","<p>Press the 1 key on your keyboard to select the picture on the LEFT.</p><p>Press the 0 key on your keyboard to select the picture on the RIGHT.</p><p>Press the spacebar continue.</p>","32","html-keyboard-response","5","3037","0.0-5.0","","","","","","","","","","","","","","","","","","","","","","","",""
"1030.0000002607703","<p>First you will do some practice trials.</p> <p>Press either button when you are ready to begin.</p>","49","html-keyboard-response","6","4069","0.0-6.0","","","","","","","","","","","","","","","","","","","","","","","",""
"null","<img style='width:200px; height:200px; margin-left: 95px; margin-right: 95px;' src='stim/fixation.png'>","null","html-keyboard-response","7","4572","0.0-7.0-0.0","","","","","","","","","","","","","","","","","","","","","","","",""
"489.99999975785613","<img src='stim/a/Field11.bmp'><img style='width:200px; height:200px; margin-bottom: 0px;' src='stim/fixation.png'><img src='stim/a/Field14.bmp'>","49","html-keyboard-response","8","5069","0.0-7.0-1.0","training","cd","0.8","valid","10","c","win:stay","48","Field11.bmp","Field14.bmp","Field14.bmp","GUID","1","00","10/09/2020","","","1","1","0","not_winner.png","A","points","0"
"null","<img style='border: 5px solid #808080;' src='stim/a/Field11.bmp'><img style='width:150px; height:150px; padding-right: 50px; padding-left: 50px; margin-bottom: 50px;' src='stim/not_winner.png'><img style='border: 5px solid #ffffff;  padding-left:15px;' src='stim/a/Field14.bmp'>","null","html-keyboard-response","9","6074","0.0-7.0-2.0","","","","","","","","","","","","","","","","","","","","","","","",""
"null","<img style='width:200px; height:200px; margin-left: 95px; margin-right: 95px;' src='stim/fixation.png'>","null","html-keyboard-response","10","7079","0.0-7.0-0.1","","","","","","","","","","","","","","","","","","","","","","","",""
"446.9999996945262","<img src='stim/a/Field5.bmp'><img style='width:200px; height:200px; margin-bottom: 0px;' src='stim/fixation.png'><img src='stim/a/Field3.bmp'>","49","html-keyboard-response","11","7533","0.0-7.0-1.1","training","ab","0.9","valid","10","a","win:stay","48","Field5.bmp","Field3.bmp","Field3.bmp","GUID","1","00","10/09/2020","","","2","1","0","not_winner.png","A","points","0"
"null","<img style='border: 5px solid #808080;' src='stim/a/Field5.bmp'><img style='width:150px; height:150px; padding-right: 50px; padding-left: 50px; margin-bottom: 50px;' src='stim/not_winner.png'><img style='border: 5px solid #ffffff;  padding-left:15px;' src='stim/a/Field3.bmp'>","null","html-keyboard-response","12","8544","0.0-7.0-2.1","","","","","","","","","","","","","","","","","","","","","","","",""
"null","<img style='width:200px; height:200px; margin-left: 95px; margin-right: 95px;' src='stim/fixation.png'>","null","html-keyboard-response","13","9549","0.0-7.0-0.2","","","","","","","","","","","","","","","","","","","","","","","",""
"635.9999999403954","<img src='stim/a/Field16.bmp'><img style='width:200px; height:200px; margin-bottom: 0px;' src='stim/fixation.png'><img src='stim/a/Field15.bmp'>","49","html-keyboard-response","14","10193","0.0-7.0-1.2","training","gh","0.8","valid","10","g","avoid:lose","48","Field15.bmp","Field16.bmp","Field15.bmp","GUID","1","00","10/09/2020","","","3","1","0","losepoints.bmp","A","points","-1"
"null","<img style='border: 5px solid #808080;' src='stim/a/Field16.bmp'><img style='width:150px; height:150px; padding-right: 50px; padding-left: 50px; margin-bottom: 50px;' src='stim/losepoints.bmp'><img style='border: 5px solid #ffffff;  padding-left:15px;' src='stim/a/Field15.bmp'>","null","html-keyboard-response","15","11199","0.0-7.0-2.2","","","","","","","","","","","","","","","","","","","","","","","",""
"null","<img style='width:200px; height:200px; margin-left: 95px; margin-right: 95px;' src='stim/fixation.png'>","null","html-keyboard-response","16","12206","0.0-7.0-0.3","","","","","","","","","","","","","","","","","","","","","","","",""
"393.9999998547137","<img src='stim/a/Field12.bmp'><img style='width:200px; height:200px; margin-bottom: 0px;' src='stim/fixation.png'><img src='stim/a/Field9.bmp'>","49","html-keyboard-response","17","12625","0.0-7.0-1.3","training","ef","0.9","valid","10","e","avoid:lose","48","Field12.bmp","Field9.bmp","Field9.bmp","GUID","1","00","10/09/2020","","","4","1","0","losepoints.bmp","A","points","-2"
"null","<img style='border: 5px solid #808080;' src='stim/a/Field12.bmp'><img style='width:150px; height:150px; padding-right: 50px; padding-left: 50px; margin-bottom: 50px;' src='stim/losepoints.bmp'><img style='border: 5px solid #ffffff;  padding-left:15px;' src='stim/a/Field9.bmp'>","null","html-keyboard-response","18","13631","0.0-7.0-2.3","","","","","","","","","","","","","","","","","","","","","","","",""
"null","<img style='width:200px; height:200px; margin-left: 95px; margin-right: 95px;' src='stim/fixation.png'>","null","html-keyboard-response","19","14654","0.0-7.0-0.4","","","","","","","","","","","","","","","","","","","","","","","",""
"700.999999884516","<img src='stim/a/Field3.bmp'><img style='width:200px; height:200px; margin-bottom: 0px;' src='stim/fixation.png'><img src='stim/a/Field5.bmp'>","49","html-keyboard-response","20","15373","0.0-7.0-1.4","training","ab","0.9","valid","10","a","win:stay","49","Field3.bmp","Field5.bmp","Field3.bmp","GUID","1","00","10/09/2020","","","5","1","1","winpoints.bmp","A","points","-1"
"null","<img style='border: 5px solid #808080;' src='stim/a/Field3.bmp'><img style='width:150px; height:150px; padding-right: 50px; padding-left: 50px; margin-bottom: 50px;' src='stim/winpoints.bmp'><img style='border: 5px solid #ffffff;  padding-left:15px;' src='stim/a/Field5.bmp'>","null","html-keyboard-response","21","16379","0.0-7.0-2.4","","","","","","","","","","","","","","","","","","","","","","","",""
"null","<img style='width:200px; height:200px; margin-left: 95px; margin-right: 95px;' src='stim/fixation.png'>","null","html-keyboard-response","22","17391","0.0-7.0-0.5","","","","","","","","","","","","","","","","","","","","","","","",""
"1438.0000000819564","<img src='stim/a/Field15.bmp'><img style='width:200px; height:200px; margin-bottom: 0px;' src='stim/fixation.png'><img src='stim/a/Field16.bmp'>","49","html-keyboard-response","23","18835","0.0-7.0-1.5","training","gh","0.8","valid","10","g","avoid:lose","49","Field15.bmp","Field16.bmp","Field15.bmp","GUID","1","00","10/09/2020","","","6","1","1","keep_points.png","A","points","-1"
"null","<img style='border: 5px solid #808080;' src='stim/a/Field15.bmp'><img style='width:150px; height:150px; padding-right: 50px; padding-left: 50px; margin-bottom: 50px;' src='stim/keep_points.png'><img style='border: 5px solid #ffffff;  padding-left:15px;' src='stim/a/Field16.bmp'>","null","html-keyboard-response","24","19848","0.0-7.0-2.5","","","","","","","","","","","","","","","","","","","","","","","",""
"null","<img style='width:200px; height:200px; margin-left: 95px; margin-right: 95px;' src='stim/fixation.png'>","null","html-keyboard-response","25","20878","0.0-7.0-0.6","","","","","","","","","","","","","","","","","","","","","","","",""
"1100.0000000931323","<img src='stim/a/Field9.bmp'><img style='width:200px; height:200px; margin-bottom: 0px;' src='stim/fixation.png'><img src='stim/a/Field12.bmp'>","49","html-keyboard-response","26","21986","0.0-7.0-1.6","training","ef","0.9","valid","10","e","avoid:lose","49","Field9.bmp","Field12.bmp","Field9.bmp","GUID","1","00","10/09/2020","","","7","1","1","keep_points.png","A","points","-1"
"null","<img style='border: 5px solid #808080;' src='stim/a/Field9.bmp'><img style='width:150px; height:150px; padding-right: 50px; padding-left: 50px; margin-bottom: 50px;' src='stim/keep_points.png'><img style='border: 5px solid #ffffff;  padding-left:15px;' src='stim/a/Field12.bmp'>","null","html-keyboard-response","27","22993","0.0-7.0-2.6","","","","","","","","","","","","","","","","","","","","","","","",""
"null","<img style='width:200px; height:200px; margin-left: 95px; margin-right: 95px;' src='stim/fixation.png'>","null","html-keyboard-response","28","24001","0.0-7.0-0.7","","","","","","","","","","","","","","","","","","","","","","","",""
"1192.9999999701977","<img src='stim/a/Field14.bmp'><img style='width:200px; height:200px; margin-bottom: 0px;' src='stim/fixation.png'><img src='stim/a/Field11.bmp'>","49","html-keyboard-response","29","25201","0.0-7.0-1.7","training","cd","0.8","valid","10","c","win:stay","49","Field14.bmp","Field11.bmp","Field14.bmp","GUID","1","00","10/09/2020","","","8","1","1","winpoints.bmp","A","points","0"
"null","<img style='border: 5px solid #808080;' src='stim/a/Field14.bmp'><img style='width:150px; height:150px; padding-right: 50px; padding-left: 50px; margin-bottom: 50px;' src='stim/winpoints.bmp'><img style='border: 5px solid #ffffff;  padding-left:15px;' src='stim/a/Field11.bmp'>","null","html-keyboard-response","30","26205","0.0-7.0-2.7","","","","","","","","","","","","","","","","","","","","","","","",""
"null","<img style='width:200px; height:200px; margin-left: 95px; margin-right: 95px;' src='stim/fixation.png'>","null","html-keyboard-response","31","27213","0.0-7.0-0.8","","","","","","","","","","","","","","","","","","","","","","","",""
"4081.0000002384186","<img src='stim/a/Field16.bmp'><img style='width:200px; height:200px; margin-bottom: 0px;' src='stim/fixation.png'><img src='stim/a/Field15.bmp'>","49","html-keyboard-response","32","31310","0.0-7.0-1.8","training","gh","0.8","invalid","10","g","avoid:lose","48","Field15.bmp","Field16.bmp","Field15.bmp","GUID","1","00","10/09/2020","","","9","1","0","keep_points.png","A","points","0"
"null","<img style='border: 5px solid #808080;' src='stim/a/Field16.bmp'><img style='width:150px; height:150px; padding-right: 50px; padding-left: 50px; margin-bottom: 50px;' src='stim/keep_points.png'><img style='border: 5px solid #ffffff;  padding-left:15px;' src='stim/a/Field15.bmp'>","null","html-keyboard-response","33","32315","0.0-7.0-2.8","","","","","","","","","","","","","","","","","","","","","","","",""
"null","<img style='width:200px; height:200px; margin-left: 95px; margin-right: 95px;' src='stim/fixation.png'>","null","html-keyboard-response","34","33318","0.0-7.0-0.9","","","","","","","","","","","","","","","","","","","","","","","",""
"3091.000000014901","<img src='stim/a/Field12.bmp'><img style='width:200px; height:200px; margin-bottom: 0px;' src='stim/fixation.png'><img src='stim/a/Field9.bmp'>","48","html-keyboard-response","35","36415","0.0-7.0-1.9","training","ef","0.9","valid","10","e","avoid:lose","48","Field12.bmp","Field9.bmp","Field9.bmp","GUID","1","00","10/09/2020","","","10","1","1","keep_points.png","A","points","0"
"null","<img style='border: 5px solid #ffffff; padding-right:15px;' src='stim/a/Field12.bmp'><img style='width:150px; height:150px; padding-right: 50px; padding-left: 50px; margin-bottom: 50px;' src='stim/keep_points.png'><img style='border: 5px solid #808080;'src='stim/a/Field9.bmp'>","null","html-keyboard-response","36","37421","0.0-7.0-2.9","","","","","","","","","","","","","","","","","","","","","","","",""
"null","<img style='width:200px; height:200px; margin-left: 95px; margin-right: 95px;' src='stim/fixation.png'>","null","html-keyboard-response","37","38427","0.0-7.0-0.10","","","","","","","","","","","","","","","","","","","","","","","",""
"1168.00000006333","<img src='stim/a/Field5.bmp'><img style='width:200px; height:200px; margin-bottom: 0px;' src='stim/fixation.png'><img src='stim/a/Field3.bmp'>","49","html-keyboard-response","38","39601","0.0-7.0-1.10","training","ab","0.9","valid","10","a","win:stay","48","Field5.bmp","Field3.bmp","Field3.bmp","GUID","1","00","10/09/2020","","","11","1","0","not_winner.png","A","points","0"
"null","<img style='border: 5px solid #808080;' src='stim/a/Field5.bmp'><img style='width:150px; height:150px; padding-right: 50px; padding-left: 50px; margin-bottom: 50px;' src='stim/not_winner.png'><img style='border: 5px solid #ffffff;  padding-left:15px;' src='stim/a/Field3.bmp'>","null","html-keyboard-response","39","40615","0.0-7.0-2.10","","","","","","","","","","","","","","","","","","","","","","","",""
"null","<img style='width:200px; height:200px; margin-left: 95px; margin-right: 95px;' src='stim/fixation.png'>","null","html-keyboard-response","40","41619","0.0-7.0-0.11","","","","","","","","","","","","","","","","","","","","","","","",""
"8907.000000122935","<img src='stim/a/Field14.bmp'><img style='width:200px; height:200px; margin-bottom: 0px;' src='stim/fixation.png'><img src='stim/a/Field11.bmp'>","48","html-keyboard-response","41","50537","0.0-7.0-1.11","training","cd","0.8","valid","10","c","win:stay","49","Field14.bmp","Field11.bmp","Field14.bmp","GUID","1","00","10/09/2020","","","12","1","0","not_winner.png","A","points","0"
"null","<img style='border: 5px solid #ffffff; padding-right:15px;' src='stim/a/Field14.bmp'><img style='width:150px; height:150px; padding-right: 50px; padding-left: 50px; margin-bottom: 50px;' src='stim/not_winner.png'><img style='border: 5px solid #808080;'src='stim/a/Field11.bmp'>","null","html-keyboard-response","42","51545","0.0-7.0-2.11","","","","","","","","","","","","","","","","","","","","","","","",""
"null","<img style='width:200px; height:200px; margin-left: 95px; margin-right: 95px;' src='stim/fixation.png'>","null","html-keyboard-response","43","52548","0.0-7.0-0.12","","","","","","","","","","","","","","","","","","","","","","","",""
"608.0000000074506","<img src='stim/a/Field14.bmp'><img style='width:200px; height:200px; margin-bottom: 0px;' src='stim/fixation.png'><img src='stim/a/Field11.bmp'>","48","html-keyboard-response","44","53165","0.0-7.0-1.12","training","cd","0.8","invalid","10","c","win:stay","49","Field14.bmp","Field11.bmp","Field14.bmp","GUID","1","00","10/09/2020","","","13","1","0","winpoints.bmp","A","points","1"
"null","<img style='border: 5px solid #ffffff; padding-right:15px;' src='stim/a/Field14.bmp'><img style='width:150px; height:150px; padding-right: 50px; padding-left: 50px; margin-bottom: 50px;' src='stim/winpoints.bmp'><img style='border: 5px solid #808080;'src='stim/a/Field11.bmp'>","null","html-keyboard-response","45","54171","0.0-7.0-2.12","","","","","","","","","","","","","","","","","","","","","","","",""
"null","<img style='width:200px; height:200px; margin-left: 95px; margin-right: 95px;' src='stim/fixation.png'>","null","html-keyboard-response","46","55174","0.0-7.0-0.13","","","","","","","","","","","","","","","","","","","","","","","",""
"946.9999996945262","<img src='stim/a/Field15.bmp'><img style='width:200px; height:200px; margin-bottom: 0px;' src='stim/fixation.png'><img src='stim/a/Field16.bmp'>","48","html-keyboard-response","47","56127","0.0-7.0-1.13","training","gh","0.8","valid","10","g","avoid:lose","49","Field15.bmp","Field16.bmp","Field15.bmp","GUID","1","00","10/09/2020","","","14","1","0","losepoints.bmp","A","points","0"
"null","<img style='border: 5px solid #ffffff; padding-right:15px;' src='stim/a/Field15.bmp'><img style='width:150px; height:150px; padding-right: 50px; padding-left: 50px; margin-bottom: 50px;' src='stim/losepoints.bmp'><img style='border: 5px solid #808080;'src='stim/a/Field16.bmp'>","null","html-keyboard-response","48","57131","0.0-7.0-2.13","","","","","","","","","","","","","","","","","","","","","","","",""
"null","<img style='width:200px; height:200px; margin-left: 95px; margin-right: 95px;' src='stim/fixation.png'>","null","html-keyboard-response","49","58137","0.0-7.0-0.14","","","","","","","","","","","","","","","","","","","","","","","",""
"2168.9999997615814","<img src='stim/a/Field3.bmp'><img style='width:200px; height:200px; margin-bottom: 0px;' src='stim/fixation.png'><img src='stim/a/Field5.bmp'>","49","html-keyboard-response","50","60334","0.0-7.0-1.14","training","ab","0.9","valid","10","a","win:stay","49","Field3.bmp","Field5.bmp","Field3.bmp","GUID","1","00","10/09/2020","","","15","1","1","winpoints.bmp","A","points","1"
"null","<img style='border: 5px solid #808080;' src='stim/a/Field3.bmp'><img style='width:150px; height:150px; padding-right: 50px; padding-left: 50px; margin-bottom: 50px;' src='stim/winpoints.bmp'><img style='border: 5px solid #ffffff;  padding-left:15px;' src='stim/a/Field5.bmp'>","null","html-keyboard-response","51","61342","0.0-7.0-2.14","","","","","","","","","","","","","","","","","","","","","","","",""
"null","<img style='width:200px; height:200px; margin-left: 95px; margin-right: 95px;' src='stim/fixation.png'>","null","html-keyboard-response","52","62346","0.0-7.0-0.15","","","","","","","","","","","","","","","","","","","","","","","",""
"321.9999996945262","<img src='stim/a/Field9.bmp'><img style='width:200px; height:200px; margin-bottom: 0px;' src='stim/fixation.png'><img src='stim/a/Field12.bmp'>","49","html-keyboard-response","53","62678","0.0-7.0-1.15","training","ef","0.9","valid","10","e","avoid:lose","49","Field9.bmp","Field12.bmp","Field9.bmp","GUID","1","00","10/09/2020","","","16","1","1","keep_points.png","A","points","1"
"null","<img style='border: 5px solid #808080;' src='stim/a/Field9.bmp'><img style='width:150px; height:150px; padding-right: 50px; padding-left: 50px; margin-bottom: 50px;' src='stim/keep_points.png'><img style='border: 5px solid #ffffff;  padding-left:15px;' src='stim/a/Field12.bmp'>","null","html-keyboard-response","54","63686","0.0-7.0-2.15","","","","","","","","","","","","","","","","","","","","","","","",""
"null","<img style='width:200px; height:200px; margin-left: 95px; margin-right: 95px;' src='stim/fixation.png'>","null","html-keyboard-response","55","64688","0.0-7.0-0.16","","","","","","","","","","","","","","","","","","","","","","","",""
"484.00000017136335","<img src='stim/a/Field15.bmp'><img style='width:200px; height:200px; margin-bottom: 0px;' src='stim/fixation.png'><img src='stim/a/Field16.bmp'>","49","html-keyboard-response","56","65181","0.0-7.0-1.16","training","gh","0.8","valid","10","g","avoid:lose","49","Field15.bmp","Field16.bmp","Field15.bmp","GUID","1","00","10/09/2020","","","17","1","1","keep_points.png","A","points","1"
"null","<img style='border: 5px solid #808080;' src='stim/a/Field15.bmp'><img style='width:150px; height:150px; padding-right: 50px; padding-left: 50px; margin-bottom: 50px;' src='stim/keep_points.png'><img style='border: 5px solid #ffffff;  padding-left:15px;' src='stim/a/Field16.bmp'>","null","html-keyboard-response","57","66195","0.0-7.0-2.16","","","","","","","","","","","","","","","","","","","","","","","",""
"null","<img style='width:200px; height:200px; margin-left: 95px; margin-right: 95px;' src='stim/fixation.png'>","null","html-keyboard-response","58","67196","0.0-7.0-0.17","","","","","","","","","","","","","","","","","","","","","","","",""
"451.9999995827675","<img src='stim/a/Field11.bmp'><img style='width:200px; height:200px; margin-bottom: 0px;' src='stim/fixation.png'><img src='stim/a/Field14.bmp'>","49","html-keyboard-response","59","67657","0.0-7.0-1.17","training","cd","0.8","valid","10","c","win:stay","48","Field11.bmp","Field14.bmp","Field14.bmp","GUID","1","00","10/09/2020","","","18","1","0","not_winner.png","A","points","1"
"null","<img style='border: 5px solid #808080;' src='stim/a/Field11.bmp'><img style='width:150px; height:150px; padding-right: 50px; padding-left: 50px; margin-bottom: 50px;' src='stim/not_winner.png'><img style='border: 5px solid #ffffff;  padding-left:15px;' src='stim/a/Field14.bmp'>","null","html-keyboard-response","60","68665","0.0-7.0-2.17","","","","","","","","","","","","","","","","","","","","","","","",""
"null","<img style='width:200px; height:200px; margin-left: 95px; margin-right: 95px;' src='stim/fixation.png'>","null","html-keyboard-response","61","69667","0.0-7.0-0.18","","","","","","","","","","","","","","","","","","","","","","","",""
"641.0000002942979","<img src='stim/a/Field3.bmp'><img style='width:200px; height:200px; margin-bottom: 0px;' src='stim/fixation.png'><img src='stim/a/Field5.bmp'>","49","html-keyboard-response","62","70321","0.0-7.0-1.18","training","ab","0.9","valid","10","a","win:stay","49","Field3.bmp","Field5.bmp","Field3.bmp","GUID","1","00","10/09/2020","","","19","1","1","winpoints.bmp","A","points","2"
"null","<img style='border: 5px solid #808080;' src='stim/a/Field3.bmp'><img style='width:150px; height:150px; padding-right: 50px; padding-left: 50px; margin-bottom: 50px;' src='stim/winpoints.bmp'><img style='border: 5px solid #ffffff;  padding-left:15px;' src='stim/a/Field5.bmp'>","null","html-keyboard-response","63","71333","0.0-7.0-2.18","","","","","","","","","","","","","","","","","","","","","","","",""
"null","<img style='width:200px; height:200px; margin-left: 95px; margin-right: 95px;' src='stim/fixation.png'>","null","html-keyboard-response","64","72335","0.0-7.0-0.19","","","","","","","","","","","","","","","","","","","","","","","",""
"918.0000000633299","<img src='stim/a/Field9.bmp'><img style='width:200px; height:200px; margin-bottom: 0px;' src='stim/fixation.png'><img src='stim/a/Field12.bmp'>","49","html-keyboard-response","65","73261","0.0-7.0-1.19","training","ef","0.9","valid","10","e","avoid:lose","49","Field9.bmp","Field12.bmp","Field9.bmp","GUID","1","00","10/09/2020","","","20","1","1","keep_points.png","A","points","2"
"null","<img style='border: 5px solid #808080;' src='stim/a/Field9.bmp'><img style='width:150px; height:150px; padding-right: 50px; padding-left: 50px; margin-bottom: 50px;' src='stim/keep_points.png'><img style='border: 5px solid #ffffff;  padding-left:15px;' src='stim/a/Field12.bmp'>","null","html-keyboard-response","66","74267","0.0-7.0-2.19","","","","","","","","","","","","","","","","","","","","","","","",""
"null","<img style='width:200px; height:200px; margin-left: 95px; margin-right: 95px;' src='stim/fixation.png'>","null","html-keyboard-response","67","75287","0.0-7.0-0.20","","","","","","","","","","","","","","","","","","","","","","","",""
"671.000000089407","<img src='stim/a/Field12.bmp'><img style='width:200px; height:200px; margin-bottom: 0px;' src='stim/fixation.png'><img src='stim/a/Field9.bmp'>","49","html-keyboard-response","68","75971","0.0-7.0-1.20","training","ef","0.9","valid","10","e","avoid:lose","48","Field12.bmp","Field9.bmp","Field9.bmp","GUID","1","00","10/09/2020","","","21","1","0","losepoints.bmp","A","points","1"
"null","<img style='border: 5px solid #808080;' src='stim/a/Field12.bmp'><img style='width:150px; height:150px; padding-right: 50px; padding-left: 50px; margin-bottom: 50px;' src='stim/losepoints.bmp'><img style='border: 5px solid #ffffff;  padding-left:15px;' src='stim/a/Field9.bmp'>","null","html-keyboard-response","69","76995","0.0-7.0-2.20","","","","","","","","","","","","","","","","","","","","","","","",""
"null","<img style='width:200px; height:200px; margin-left: 95px; margin-right: 95px;' src='stim/fixation.png'>","null","html-keyboard-response","70","77998","0.0-7.0-0.21","","","","","","","","","","","","","","","","","","","","","","","",""
"3597.9999997653067","<img src='stim/a/Field15.bmp'><img style='width:200px; height:200px; margin-bottom: 0px;' src='stim/fixation.png'><img src='stim/a/Field16.bmp'>","49","html-keyboard-response","71","81600","0.0-7.0-1.21","training","gh","0.8","valid","10","g","avoid:lose","49","Field15.bmp","Field16.bmp","Field15.bmp","GUID","1","00","10/09/2020","","","22","1","1","keep_points.png","A","points","1"
"null","<img style='border: 5px solid #808080;' src='stim/a/Field15.bmp'><img style='width:150px; height:150px; padding-right: 50px; padding-left: 50px; margin-bottom: 50px;' src='stim/keep_points.png'><img style='border: 5px solid #ffffff;  padding-left:15px;' src='stim/a/Field16.bmp'>","null","html-keyboard-response","72","82605","0.0-7.0-2.21","","","","","","","","","","","","","","","","","","","","","","","",""
"null","<img style='width:200px; height:200px; margin-left: 95px; margin-right: 95px;' src='stim/fixation.png'>","null","html-keyboard-response","73","83607","0.0-7.0-0.22","","","","","","","","","","","","","","","","","","","","","","","",""
"726.9999999552965","<img src='stim/a/Field11.bmp'><img style='width:200px; height:200px; margin-bottom: 0px;' src='stim/fixation.png'><img src='stim/a/Field14.bmp'>","49","html-keyboard-response","74","84341","0.0-7.0-1.22","training","cd","0.8","valid","10","c","win:stay","48","Field11.bmp","Field14.bmp","Field14.bmp","GUID","1","00","10/09/2020","","","23","1","0","not_winner.png","A","points","1"
"null","<img style='border: 5px solid #808080;' src='stim/a/Field11.bmp'><img style='width:150px; height:150px; padding-right: 50px; padding-left: 50px; margin-bottom: 50px;' src='stim/not_winner.png'><img style='border: 5px solid #ffffff;  padding-left:15px;' src='stim/a/Field14.bmp'>","null","html-keyboard-response","75","85349","0.0-7.0-2.22","","","","","","","","","","","","","","","","","","","","","","","",""
"null","<img style='width:200px; height:200px; margin-left: 95px; margin-right: 95px;' src='stim/fixation.png'>","null","html-keyboard-response","76","86357","0.0-7.0-0.23","","","","","","","","","","","","","","","","","","","","","","","",""
"744.9999996460974","<img src='stim/a/Field3.bmp'><img style='width:200px; height:200px; margin-bottom: 0px;' src='stim/fixation.png'><img src='stim/a/Field5.bmp'>","49","html-keyboard-response","77","87109","0.0-7.0-1.23","training","ab","0.9","valid","10","a","win:stay","49","Field3.bmp","Field5.bmp","Field3.bmp","GUID","1","00","10/09/2020","","","24","1","1","winpoints.bmp","A","points","2"
"null","<img style='border: 5px solid #808080;' src='stim/a/Field3.bmp'><img style='width:150px; height:150px; padding-right: 50px; padding-left: 50px; margin-bottom: 50px;' src='stim/winpoints.bmp'><img style='border: 5px solid #ffffff;  padding-left:15px;' src='stim/a/Field5.bmp'>","null","html-keyboard-response","78","88113","0.0-7.0-2.23","","","","","","","","","","","","","","","","","","","","","","","",""
"null","<img style='width:200px; height:200px; margin-left: 95px; margin-right: 95px;' src='stim/fixation.png'>","null","html-keyboard-response","79","89114","0.0-7.0-0.24","","","","","","","","","","","","","","","","","","","","","","","",""
"1003.000000026077","<img src='stim/a/Field12.bmp'><img style='width:200px; height:200px; margin-bottom: 0px;' src='stim/fixation.png'><img src='stim/a/Field9.bmp'>","49","html-keyboard-response","80","90124","0.0-7.0-1.24","training","ef","0.9","invalid","10","e","avoid:lose","48","Field12.bmp","Field9.bmp","Field9.bmp","GUID","1","00","10/09/2020","","","25","1","0","keep_points.png","A","points","2"
"null","<img style='border: 5px solid #808080;' src='stim/a/Field12.bmp'><img style='width:150px; height:150px; padding-right: 50px; padding-left: 50px; margin-bottom: 50px;' src='stim/keep_points.png'><img style='border: 5px solid #ffffff;  padding-left:15px;' src='stim/a/Field9.bmp'>","null","html-keyboard-response","81","91131","0.0-7.0-2.24","","","","","","","","","","","","","","","","","","","","","","","",""
"null","<img style='width:200px; height:200px; margin-left: 95px; margin-right: 95px;' src='stim/fixation.png'>","null","html-keyboard-response","82","92131","0.0-7.0-0.25","","","","","","","","","","","","","","","","","","","","","","","",""
"619.0000004135072","<img src='stim/a/Field16.bmp'><img style='width:200px; height:200px; margin-bottom: 0px;' src='stim/fixation.png'><img src='stim/a/Field15.bmp'>","49","html-keyboard-response","83","92756","0.0-7.0-1.25","training","gh","0.8","valid","10","g","avoid:lose","48","Field15.bmp","Field16.bmp","Field15.bmp","GUID","1","00","10/09/2020","","","26","1","0","losepoints.bmp","A","points","1"
"null","<img style='border: 5px solid #808080;' src='stim/a/Field16.bmp'><img style='width:150px; height:150px; padding-right: 50px; padding-left: 50px; margin-bottom: 50px;' src='stim/losepoints.bmp'><img style='border: 5px solid #ffffff;  padding-left:15px;' src='stim/a/Field15.bmp'>","null","html-keyboard-response","84","93760","0.0-7.0-2.25","","","","","","","","","","","","","","","","","","","","","","","",""
"null","<img style='width:200px; height:200px; margin-left: 95px; margin-right: 95px;' src='stim/fixation.png'>","null","html-keyboard-response","85","94766","0.0-7.0-0.26","","","","","","","","","","","","","","","","","","","","","","","",""
"1581.99999993667","<img src='stim/a/Field14.bmp'><img style='width:200px; height:200px; margin-bottom: 0px;' src='stim/fixation.png'><img src='stim/a/Field11.bmp'>","49","html-keyboard-response","86","96357","0.0-7.0-1.26","training","cd","0.8","invalid","10","c","win:stay","49","Field14.bmp","Field11.bmp","Field14.bmp","GUID","1","00","10/09/2020","","","27","1","1","not_winner.png","A","points","1"
"null","<img style='border: 5px solid #808080;' src='stim/a/Field14.bmp'><img style='width:150px; height:150px; padding-right: 50px; padding-left: 50px; margin-bottom: 50px;' src='stim/not_winner.png'><img style='border: 5px solid #ffffff;  padding-left:15px;' src='stim/a/Field11.bmp'>","null","html-keyboard-response","87","97362","0.0-7.0-2.26","","","","","","","","","","","","","","","","","","","","","","","",""
"null","<img style='width:200px; height:200px; margin-left: 95px; margin-right: 95px;' src='stim/fixation.png'>","null","html-keyboard-response","88","98366","0.0-7.0-0.27","","","","","","","","","","","","","","","","","","","","","","","",""
"634.9999997764826","<img src='stim/a/Field5.bmp'><img style='width:200px; height:200px; margin-bottom: 0px;' src='stim/fixation.png'><img src='stim/a/Field3.bmp'>","49","html-keyboard-response","89","99004","0.0-7.0-1.27","training","ab","0.9","valid","10","a","win:stay","48","Field5.bmp","Field3.bmp","Field3.bmp","GUID","1","00","10/09/2020","","","28","1","0","not_winner.png","A","points","1"
"null","<img style='border: 5px solid #808080;' src='stim/a/Field5.bmp'><img style='width:150px; height:150px; padding-right: 50px; padding-left: 50px; margin-bottom: 50px;' src='stim/not_winner.png'><img style='border: 5px solid #ffffff;  padding-left:15px;' src='stim/a/Field3.bmp'>","null","html-keyboard-response","90","100310","0.0-7.0-2.27","","","","","","","","","","","","","","","","","","","","","","","",""
"null","<img style='width:200px; height:200px; margin-left: 95px; margin-right: 95px;' src='stim/fixation.png'>","null","html-keyboard-response","91","101312","0.0-7.0-0.28","","","","","","","","","","","","","","","","","","","","","","","",""
"898.0000000447035","<img src='stim/a/Field16.bmp'><img style='width:200px; height:200px; margin-bottom: 0px;' src='stim/fixation.png'><img src='stim/a/Field15.bmp'>","49","html-keyboard-response","92","102214","0.0-7.0-1.28","training","gh","0.8","invalid","10","g","avoid:lose","48","Field15.bmp","Field16.bmp","Field15.bmp","GUID","1","00","10/09/2020","","","29","1","0","keep_points.png","A","points","1"
"null","<img style='border: 5px solid #808080;' src='stim/a/Field16.bmp'><img style='width:150px; height:150px; padding-right: 50px; padding-left: 50px; margin-bottom: 50px;' src='stim/keep_points.png'><img style='border: 5px solid #ffffff;  padding-left:15px;' src='stim/a/Field15.bmp'>","null","html-keyboard-response","93","103221","0.0-7.0-2.28","","","","","","","","","","","","","","","","","","","","","","","",""
"null","<img style='width:200px; height:200px; margin-left: 95px; margin-right: 95px;' src='stim/fixation.png'>","null","html-keyboard-response","94","104224","0.0-7.0-0.29","","","","","","","","","","","","","","","","","","","","","","","",""
"640.0000001303852","<img src='stim/a/Field11.bmp'><img style='width:200px; height:200px; margin-bottom: 0px;' src='stim/fixation.png'><img src='stim/a/Field14.bmp'>","49","html-keyboard-response","95","104868","0.0-7.0-1.29","training","cd","0.8","valid","10","c","win:stay","48","Field11.bmp","Field14.bmp","Field14.bmp","GUID","1","00","10/09/2020","","","30","1","0","not_winner.png","A","points","1"
"null","<img style='border: 5px solid #808080;' src='stim/a/Field11.bmp'><img style='width:150px; height:150px; padding-right: 50px; padding-left: 50px; margin-bottom: 50px;' src='stim/not_winner.png'><img style='border: 5px solid #ffffff;  padding-left:15px;' src='stim/a/Field14.bmp'>","null","html-keyboard-response","96","105873","0.0-7.0-2.29","","","","","","","","","","","","","","","","","","","","","","","",""
"null","<img style='width:200px; height:200px; margin-left: 95px; margin-right: 95px;' src='stim/fixation.png'>","null","html-keyboard-response","97","106877","0.0-7.0-0.30","","","","","","","","","","","","","","","","","","","","","","","",""
"955.9999997727573","<img src='stim/a/Field9.bmp'><img style='width:200px; height:200px; margin-bottom: 0px;' src='stim/fixation.png'><img src='stim/a/Field12.bmp'>","49","html-keyboard-response","98","107836","0.0-7.0-1.30","training","ef","0.9","valid","10","e","avoid:lose","49","Field9.bmp","Field12.bmp","Field9.bmp","GUID","1","00","10/09/2020","","","31","1","1","keep_points.png","A","points","1"
"null","<img style='border: 5px solid #808080;' src='stim/a/Field9.bmp'><img style='width:150px; height:150px; padding-right: 50px; padding-left: 50px; margin-bottom: 50px;' src='stim/keep_points.png'><img style='border: 5px solid #ffffff;  padding-left:15px;' src='stim/a/Field12.bmp'>","null","html-keyboard-response","99","108842","0.0-7.0-2.30","","","","","","","","","","","","","","","","","","","","","","","",""
"null","<img style='width:200px; height:200px; margin-left: 95px; margin-right: 95px;' src='stim/fixation.png'>","null","html-keyboard-response","100","109845","0.0-7.0-0.31","","","","","","","","","","","","","","","","","","","","","","","",""
"785.0000001490116","<img src='stim/a/Field5.bmp'><img style='width:200px; height:200px; margin-bottom: 0px;' src='stim/fixation.png'><img src='stim/a/Field3.bmp'>","49","html-keyboard-response","101","110653","0.0-7.0-1.31","training","ab","0.9","valid","10","a","win:stay","48","Field5.bmp","Field3.bmp","Field3.bmp","GUID","1","00","10/09/2020","","","32","1","0","not_winner.png","A","points","1"
"null","<img style='border: 5px solid #808080;' src='stim/a/Field5.bmp'><img style='width:150px; height:150px; padding-right: 50px; padding-left: 50px; margin-bottom: 50px;' src='stim/not_winner.png'><img style='border: 5px solid #ffffff;  padding-left:15px;' src='stim/a/Field3.bmp'>","null","html-keyboard-response","102","111667","0.0-7.0-2.31","","","","","","","","","","","","","","","","","","","","","","","",""
"null","<img style='width:200px; height:200px; margin-left: 95px; margin-right: 95px;' src='stim/fixation.png'>","null","html-keyboard-response","103","112671","0.0-7.0-0.32","","","","","","","","","","","","","","","","","","","","","","","",""
"825.0000001862645","<img src='stim/a/Field16.bmp'><img style='width:200px; height:200px; margin-bottom: 0px;' src='stim/fixation.png'><img src='stim/a/Field15.bmp'>","49","html-keyboard-response","104","113501","0.0-7.0-1.32","training","gh","0.8","valid","10","g","avoid:lose","48","Field15.bmp","Field16.bmp","Field15.bmp","GUID","1","00","10/09/2020","","","33","1","0","losepoints.bmp","A","points","0"
"null","<img style='border: 5px solid #808080;' src='stim/a/Field16.bmp'><img style='width:150px; height:150px; padding-right: 50px; padding-left: 50px; margin-bottom: 50px;' src='stim/losepoints.bmp'><img style='border: 5px solid #ffffff;  padding-left:15px;' src='stim/a/Field15.bmp'>","null","html-keyboard-response","105","114510","0.0-7.0-2.32","","","","","","","","","","","","","","","","","","","","","","","",""
"null","<img style='width:200px; height:200px; margin-left: 95px; margin-right: 95px;' src='stim/fixation.png'>","null","html-keyboard-response","106","115512","0.0-7.0-0.33","","","","","","","","","","","","","","","","","","","","","","","",""
"493.99999994784594","<img src='stim/a/Field3.bmp'><img style='width:200px; height:200px; margin-bottom: 0px;' src='stim/fixation.png'><img src='stim/a/Field5.bmp'>","49","html-keyboard-response","107","116013","0.0-7.0-1.33","training","ab","0.9","valid","10","a","win:stay","49","Field3.bmp","Field5.bmp","Field3.bmp","GUID","1","00","10/09/2020","","","34","1","1","winpoints.bmp","A","points","1"
"null","<img style='border: 5px solid #808080;' src='stim/a/Field3.bmp'><img style='width:150px; height:150px; padding-right: 50px; padding-left: 50px; margin-bottom: 50px;' src='stim/winpoints.bmp'><img style='border: 5px solid #ffffff;  padding-left:15px;' src='stim/a/Field5.bmp'>","null","html-keyboard-response","108","117016","0.0-7.0-2.33","","","","","","","","","","","","","","","","","","","","","","","",""
"null","<img style='width:200px; height:200px; margin-left: 95px; margin-right: 95px;' src='stim/fixation.png'>","null","html-keyboard-response","109","118019","0.0-7.0-0.34","","","","","","","","","","","","","","","","","","","","","","","",""
"483.99999970570207","<img src='stim/a/Field12.bmp'><img style='width:200px; height:200px; margin-bottom: 0px;' src='stim/fixation.png'><img src='stim/a/Field9.bmp'>","49","html-keyboard-response","110","118514","0.0-7.0-1.34","training","ef","0.9","valid","10","e","avoid:lose","48","Field12.bmp","Field9.bmp","Field9.bmp","GUID","1","00","10/09/2020","","","35","1","0","losepoints.bmp","A","points","0"
"null","<img style='border: 5px solid #808080;' src='stim/a/Field12.bmp'><img style='width:150px; height:150px; padding-right: 50px; padding-left: 50px; margin-bottom: 50px;' src='stim/losepoints.bmp'><img style='border: 5px solid #ffffff;  padding-left:15px;' src='stim/a/Field9.bmp'>","null","html-keyboard-response","111","119517","0.0-7.0-2.34","","","","","","","","","","","","","","","","","","","","","","","",""
"null","<img style='width:200px; height:200px; margin-left: 95px; margin-right: 95px;' src='stim/fixation.png'>","null","html-keyboard-response","112","120518","0.0-7.0-0.35","","","","","","","","","","","","","","","","","","","","","","","",""
"502.00000032782555","<img src='stim/a/Field11.bmp'><img style='width:200px; height:200px; margin-bottom: 0px;' src='stim/fixation.png'><img src='stim/a/Field14.bmp'>","49","html-keyboard-response","113","121028","0.0-7.0-1.35","training","cd","0.8","valid","10","c","win:stay","48","Field11.bmp","Field14.bmp","Field14.bmp","GUID","1","00","10/09/2020","","","36","1","0","not_winner.png","A","points","0"
"null","<img style='border: 5px solid #808080;' src='stim/a/Field11.bmp'><img style='width:150px; height:150px; padding-right: 50px; padding-left: 50px; margin-bottom: 50px;' src='stim/not_winner.png'><img style='border: 5px solid #ffffff;  padding-left:15px;' src='stim/a/Field14.bmp'>","null","html-keyboard-response","114","122035","0.0-7.0-2.35","","","","","","","","","","","","","","","","","","","","","","","",""
"null","<img style='width:200px; height:200px; margin-left: 95px; margin-right: 95px;' src='stim/fixation.png'>","null","html-keyboard-response","115","123036","0.0-7.0-0.36","","","","","","","","","","","","","","","","","","","","","","","",""
"490.9999999217689","<img src='stim/a/Field14.bmp'><img style='width:200px; height:200px; margin-bottom: 0px;' src='stim/fixation.png'><img src='stim/a/Field11.bmp'>","49","html-keyboard-response","116","123532","0.0-7.0-1.36","training","cd","0.8","valid","10","c","win:stay","49","Field14.bmp","Field11.bmp","Field14.bmp","GUID","1","00","10/09/2020","","","37","1","1","winpoints.bmp","A","points","1"
"null","<img style='border: 5px solid #808080;' src='stim/a/Field14.bmp'><img style='width:150px; height:150px; padding-right: 50px; padding-left: 50px; margin-bottom: 50px;' src='stim/winpoints.bmp'><img style='border: 5px solid #ffffff;  padding-left:15px;' src='stim/a/Field11.bmp'>","null","html-keyboard-response","117","124544","0.0-7.0-2.36","","","","","","","","","","","","","","","","","","","","","","","",""
"null","<img style='width:200px; height:200px; margin-left: 95px; margin-right: 95px;' src='stim/fixation.png'>","null","html-keyboard-response","118","125546","0.0-7.0-0.37","","","","","","","","","","","","","","","","","","","","","","","",""
"518.0000001564622","<img src='stim/a/Field9.bmp'><img style='width:200px; height:200px; margin-bottom: 0px;' src='stim/fixation.png'><img src='stim/a/Field12.bmp'>","49","html-keyboard-response","119","126069","0.0-7.0-1.37","training","ef","0.9","valid","10","e","avoid:lose","49","Field9.bmp","Field12.bmp","Field9.bmp","GUID","1","00","10/09/2020","","","38","1","1","keep_points.png","A","points","1"
"null","<img style='border: 5px solid #808080;' src='stim/a/Field9.bmp'><img style='width:150px; height:150px; padding-right: 50px; padding-left: 50px; margin-bottom: 50px;' src='stim/keep_points.png'><img style='border: 5px solid #ffffff;  padding-left:15px;' src='stim/a/Field12.bmp'>","null","html-keyboard-response","120","127074","0.0-7.0-2.37","","","","","","","","","","","","","","","","","","","","","","","",""
"null","<img style='width:200px; height:200px; margin-left: 95px; margin-right: 95px;' src='stim/fixation.png'>","null","html-keyboard-response","121","128075","0.0-7.0-0.38","","","","","","","","","","","","","","","","","","","","","","","",""
"612.9999998956919","<img src='stim/a/Field5.bmp'><img style='width:200px; height:200px; margin-bottom: 0px;' src='stim/fixation.png'><img src='stim/a/Field3.bmp'>","49","html-keyboard-response","122","128693","0.0-7.0-1.38","training","ab","0.9","invalid","10","a","win:stay","48","Field5.bmp","Field3.bmp","Field3.bmp","GUID","1","00","10/09/2020","","","39","1","0","winpoints.bmp","A","points","2"
"null","<img style='border: 5px solid #808080;' src='stim/a/Field5.bmp'><img style='width:150px; height:150px; padding-right: 50px; padding-left: 50px; margin-bottom: 50px;' src='stim/winpoints.bmp'><img style='border: 5px solid #ffffff;  padding-left:15px;' src='stim/a/Field3.bmp'>","null","html-keyboard-response","123","129697","0.0-7.0-2.38","","","","","","","","","","","","","","","","","","","","","","","",""
"null","<img style='width:200px; height:200px; margin-left: 95px; margin-right: 95px;' src='stim/fixation.png'>","null","html-keyboard-response","124","130704","0.0-7.0-0.39","","","","","","","","","","","","","","","","","","","","","","","",""
"783.0000002868474","<img src='stim/a/Field15.bmp'><img style='width:200px; height:200px; margin-bottom: 0px;' src='stim/fixation.png'><img src='stim/a/Field16.bmp'>","49","html-keyboard-response","125","131494","0.0-7.0-1.39","training","gh","0.8","valid","10","g","avoid:lose","49","Field15.bmp","Field16.bmp","Field15.bmp","GUID","1","00","10/09/2020","","","40","1","1","keep_points.png","A","points","2"
"null","<img style='border: 5px solid #808080;' src='stim/a/Field15.bmp'><img style='width:150px; height:150px; padding-right: 50px; padding-left: 50px; margin-bottom: 50px;' src='stim/keep_points.png'><img style='border: 5px solid #ffffff;  padding-left:15px;' src='stim/a/Field16.bmp'>","null","html-keyboard-response","126","132498","0.0-7.0-2.39","","","","","","","","","","","","","","","","","","","","","","","",""
"null","<img style='width:200px; height:200px; margin-left: 95px; margin-right: 95px;' src='stim/fixation.png'>","null","html-keyboard-response","127","133499","0.0-8.0-0.0","","","","","","","","","","","","","","","","","","","","","","","",""
"716.9999997131526","<img src='stim/a/Field5.bmp'><img style='width:200px; height:200px; margin-bottom: 0px;' src='stim/fixation.png'><img src='stim/a/Field9.bmp'>","49","html-keyboard-response","128","134229","0.0-8.0-1.0","test","be","","","","e","","49","Field5.bmp","Field9.bmp","Field9.bmp","GUID","1","00","10/09/2020","","","1","1","","keep_points.png","A","points","2"
"null","<img style='border: 5px solid #808080;' src='stim/a/Field5.bmp'><img style='width:200px; height:200px; margin-bottom: 0px;' src='stim/fixation.png'><img style='border: 5px solid #ffffff;  padding-left:15px;' src='stim/a/Field9.bmp'>","null","html-keyboard-response","129","134438","0.0-8.0-2.0","","","","","","","","","","","","","","","","","","","","","","","",""
"null","<img style='width:200px; height:200px; margin-left: 95px; margin-right: 95px;' src='stim/fixation.png'>","null","html-keyboard-response","130","135265","0.0-8.0-0.1","","","","","","","","","","","","","","","","","","","","","","","",""
"2379.00000018999","<img src='stim/a/Field9.bmp'><img style='width:200px; height:200px; margin-bottom: 0px;' src='stim/fixation.png'><img src='stim/a/Field12.bmp'>","49","html-keyboard-response","131","137655","0.0-8.0-1.1","test","ef","","","","e","","49","Field9.bmp","Field12.bmp","Field9.bmp","GUID","1","00","10/09/2020","","","2","1","","keep_points.png","A","points","2"
"null","<img style='border: 5px solid #808080;' src='stim/a/Field9.bmp'><img style='width:200px; height:200px; margin-bottom: 0px;' src='stim/fixation.png'><img style='border: 5px solid #ffffff;  padding-left:15px;' src='stim/a/Field12.bmp'>","null","html-keyboard-response","132","137868","0.0-8.0-2.1","","","","","","","","","","","","","","","","","","","","","","","",""
"null","<img style='width:200px; height:200px; margin-left: 95px; margin-right: 95px;' src='stim/fixation.png'>","null","html-keyboard-response","133","138671","0.0-8.0-0.2","","","","","","","","","","","","","","","","","","","","","","","",""
"1320.9999999962747","<img src='stim/a/Field11.bmp'><img style='width:200px; height:200px; margin-bottom: 0px;' src='stim/fixation.png'><img src='stim/a/Field9.bmp'>","49","html-keyboard-response","134","139997","0.0-8.0-1.2","test","de","","","","e","","49","Field11.bmp","Field9.bmp","Field9.bmp","GUID","1","00","10/09/2020","","","3","1","","keep_points.png","A","points","2"
"null","<img style='border: 5px solid #808080;' src='stim/a/Field11.bmp'><img style='width:200px; height:200px; margin-bottom: 0px;' src='stim/fixation.png'><img style='border: 5px solid #ffffff;  padding-left:15px;' src='stim/a/Field9.bmp'>","null","html-keyboard-response","135","140202","0.0-8.0-2.2","","","","","","","","","","","","","","","","","","","","","","","",""
"null","<img style='width:200px; height:200px; margin-left: 95px; margin-right: 95px;' src='stim/fixation.png'>","null","html-keyboard-response","136","141012","0.0-8.0-0.3","","","","","","","","","","","","","","","","","","","","","","","",""
"1266.9999999925494","<img src='stim/a/Field9.bmp'><img style='width:200px; height:200px; margin-bottom: 0px;' src='stim/fixation.png'><img src='stim/a/Field11.bmp'>","49","html-keyboard-response","137","142284","0.0-8.0-1.3","test","de","","","","e","","48","Field9.bmp","Field11.bmp","Field9.bmp","GUID","1","00","10/09/2020","","","4","1","","keep_points.png","A","points","2"
"null","<img style='border: 5px solid #808080;' src='stim/a/Field9.bmp'><img style='width:200px; height:200px; margin-bottom: 0px;' src='stim/fixation.png'><img style='border: 5px solid #ffffff;  padding-left:15px;' src='stim/a/Field11.bmp'>","null","html-keyboard-response","138","142492","0.0-8.0-2.3","","","","","","","","","","","","","","","","","","","","","","","",""
"null","<img style='width:200px; height:200px; margin-left: 95px; margin-right: 95px;' src='stim/fixation.png'>","null","html-keyboard-response","139","143296","0.0-8.0-0.4","","","","","","","","","","","","","","","","","","","","","","","",""
"1115.0000002235174","<img src='stim/a/Field3.bmp'><img style='width:200px; height:200px; margin-bottom: 0px;' src='stim/fixation.png'><img src='stim/a/Field5.bmp'>","49","html-keyboard-response","140","144422","0.0-8.0-1.4","test","ab","","","","a","","49","Field3.bmp","Field5.bmp","Field3.bmp","GUID","1","00","10/09/2020","","","5","1","","keep_points.png","A","points","2"
"null","<img style='border: 5px solid #808080;' src='stim/a/Field3.bmp'><img style='width:200px; height:200px; margin-bottom: 0px;' src='stim/fixation.png'><img style='border: 5px solid #ffffff;  padding-left:15px;' src='stim/a/Field5.bmp'>","null","html-keyboard-response","141","144631","0.0-8.0-2.4","","","","","","","","","","","","","","","","","","","","","","","",""
"null","<img style='width:200px; height:200px; margin-left: 95px; margin-right: 95px;' src='stim/fixation.png'>","null","html-keyboard-response","142","145432","0.0-8.0-0.5","","","","","","","","","","","","","","","","","","","","","","","",""
"755.9999995864928","<img src='stim/a/Field12.bmp'><img style='width:200px; height:200px; margin-bottom: 0px;' src='stim/fixation.png'><img src='stim/a/Field9.bmp'>","49","html-keyboard-response","143","146192","0.0-8.0-1.5","test","ef","","","","e","","48","Field12.bmp","Field9.bmp","Field9.bmp","GUID","1","00","10/09/2020","","","6","1","","keep_points.png","A","points","2"
"null","<img style='border: 5px solid #808080;' src='stim/a/Field12.bmp'><img style='width:200px; height:200px; margin-bottom: 0px;' src='stim/fixation.png'><img style='border: 5px solid #ffffff;  padding-left:15px;' src='stim/a/Field9.bmp'>","null","html-keyboard-response","144","146397","0.0-8.0-2.5","","","","","","","","","","","","","","","","","","","","","","","",""
"null","<img style='width:200px; height:200px; margin-left: 95px; margin-right: 95px;' src='stim/fixation.png'>","null","html-keyboard-response","145","147199","0.0-8.0-0.6","","","","","","","","","","","","","","","","","","","","","","","",""
"2032.0000001229346","<img src='stim/a/Field3.bmp'><img style='width:200px; height:200px; margin-bottom: 0px;' src='stim/fixation.png'><img src='stim/a/Field9.bmp'>","49","html-keyboard-response","146","149239","0.0-8.0-1.6","test","ae","","","","a","","49","Field3.bmp","Field9.bmp","Field3.bmp","GUID","1","00","10/09/2020","","","7","1","","keep_points.png","A","points","2"
"null","<img style='border: 5px solid #808080;' src='stim/a/Field3.bmp'><img style='width:200px; height:200px; margin-bottom: 0px;' src='stim/fixation.png'><img style='border: 5px solid #ffffff;  padding-left:15px;' src='stim/a/Field9.bmp'>","null","html-keyboard-response","147","149442","0.0-8.0-2.6","","","","","","","","","","","","","","","","","","","","","","","",""
"null","<img style='width:200px; height:200px; margin-left: 95px; margin-right: 95px;' src='stim/fixation.png'>","null","html-keyboard-response","148","150245","0.0-8.0-0.7","","","","","","","","","","","","","","","","","","","","","","","",""
"626.0000001639128","<img src='stim/a/Field3.bmp'><img style='width:200px; height:200px; margin-bottom: 0px;' src='stim/fixation.png'><img src='stim/a/Field15.bmp'>","49","html-keyboard-response","149","150910","0.0-8.0-1.7","test","ag","","","","a","","49","Field3.bmp","Field15.bmp","Field3.bmp","GUID","1","00","10/09/2020","","","8","1","","keep_points.png","A","points","2"
"null","<img style='border: 5px solid #808080;' src='stim/a/Field3.bmp'><img style='width:200px; height:200px; margin-bottom: 0px;' src='stim/fixation.png'><img style='border: 5px solid #ffffff;  padding-left:15px;' src='stim/a/Field15.bmp'>","null","html-keyboard-response","150","151115","0.0-8.0-2.7","","","","","","","","","","","","","","","","","","","","","","","",""
"null","<img style='width:200px; height:200px; margin-left: 95px; margin-right: 95px;' src='stim/fixation.png'>","null","html-keyboard-response","151","151916","0.0-8.0-0.8","","","","","","","","","","","","","","","","","","","","","","","",""
"562.9999996162951","<img src='stim/a/Field16.bmp'><img style='width:200px; height:200px; margin-bottom: 0px;' src='stim/fixation.png'><img src='stim/a/Field14.bmp'>","49","html-keyboard-response","152","152485","0.0-8.0-1.8","test","ch","","","","c","","48","Field16.bmp","Field14.bmp","Field14.bmp","GUID","1","00","10/09/2020","","","9","1","","keep_points.png","A","points","2"
"null","<img style='border: 5px solid #808080;' src='stim/a/Field16.bmp'><img style='width:200px; height:200px; margin-bottom: 0px;' src='stim/fixation.png'><img style='border: 5px solid #ffffff;  padding-left:15px;' src='stim/a/Field14.bmp'>","null","html-keyboard-response","153","152689","0.0-8.0-2.8","","","","","","","","","","","","","","","","","","","","","","","",""
"null","<img style='width:200px; height:200px; margin-left: 95px; margin-right: 95px;' src='stim/fixation.png'>","null","html-keyboard-response","154","153494","0.0-8.0-0.9","","","","","","","","","","","","","","","","","","","","","","","",""
"656.9999996572733","<img src='stim/a/Field14.bmp'><img style='width:200px; height:200px; margin-bottom: 0px;' src='stim/fixation.png'><img src='stim/a/Field11.bmp'>","49","html-keyboard-response","155","154156","0.0-8.0-1.9","test","cd","","","","c","","49","Field14.bmp","Field11.bmp","Field14.bmp","GUID","1","00","10/09/2020","","","10","1","","keep_points.png","A","points","2"
"null","<img style='border: 5px solid #808080;' src='stim/a/Field14.bmp'><img style='width:200px; height:200px; margin-bottom: 0px;' src='stim/fixation.png'><img style='border: 5px solid #ffffff;  padding-left:15px;' src='stim/a/Field11.bmp'>","null","html-keyboard-response","156","154361","0.0-8.0-2.9","","","","","","","","","","","","","","","","","","","","","","","",""
"null","<img style='width:200px; height:200px; margin-left: 95px; margin-right: 95px;' src='stim/fixation.png'>","null","html-keyboard-response","157","155164","0.0-8.0-0.10","","","","","","","","","","","","","","","","","","","","","","","",""
"537.0000000111759","<img src='stim/a/Field12.bmp'><img style='width:200px; height:200px; margin-bottom: 0px;' src='stim/fixation.png'><img src='stim/a/Field3.bmp'>","49","html-keyboard-response","158","155710","0.0-8.0-1.10","test","af","","","","a","","48","Field12.bmp","Field3.bmp","Field3.bmp","GUID","1","00","10/09/2020","","","11","1","","keep_points.png","A","points","2"
"null","<img style='border: 5px solid #808080;' src='stim/a/Field12.bmp'><img style='width:200px; height:200px; margin-bottom: 0px;' src='stim/fixation.png'><img style='border: 5px solid #ffffff;  padding-left:15px;' src='stim/a/Field3.bmp'>","null","html-keyboard-response","159","155915","0.0-8.0-2.10","","","","","","","","","","","","","","","","","","","","","","","",""
"null","<img style='width:200px; height:200px; margin-left: 95px; margin-right: 95px;' src='stim/fixation.png'>","null","html-keyboard-response","160","156719","0.0-8.0-0.11","","","","","","","","","","","","","","","","","","","","","","","",""
"574.9999997206032","<img src='stim/a/Field15.bmp'><img style='width:200px; height:200px; margin-bottom: 0px;' src='stim/fixation.png'><img src='stim/a/Field3.bmp'>","49","html-keyboard-response","161","157303","0.0-8.0-1.11","test","ag","","","","a","","48","Field15.bmp","Field3.bmp","Field3.bmp","GUID","1","00","10/09/2020","","","12","1","","keep_points.png","A","points","2"
"null","<img style='border: 5px solid #808080;' src='stim/a/Field15.bmp'><img style='width:200px; height:200px; margin-bottom: 0px;' src='stim/fixation.png'><img style='border: 5px solid #ffffff;  padding-left:15px;' src='stim/a/Field3.bmp'>","null","html-keyboard-response","162","157508","0.0-8.0-2.11","","","","","","","","","","","","","","","","","","","","","","","",""
"null","<img style='width:200px; height:200px; margin-left: 95px; margin-right: 95px;' src='stim/fixation.png'>","null","html-keyboard-response","163","158309","0.0-8.0-0.12","","","","","","","","","","","","","","","","","","","","","","","",""
"484.99999986961484","<img src='stim/a/Field9.bmp'><img style='width:200px; height:200px; margin-bottom: 0px;' src='stim/fixation.png'><img src='stim/a/Field3.bmp'>","49","html-keyboard-response","164","158799","0.0-8.0-1.12","test","ae","","","","a","","48","Field9.bmp","Field3.bmp","Field3.bmp","GUID","1","00","10/09/2020","","","13","1","","keep_points.png","A","points","2"
"null","<img style='border: 5px solid #808080;' src='stim/a/Field9.bmp'><img style='width:200px; height:200px; margin-bottom: 0px;' src='stim/fixation.png'><img style='border: 5px solid #ffffff;  padding-left:15px;' src='stim/a/Field3.bmp'>","null","html-keyboard-response","165","159006","0.0-8.0-2.12","","","","","","","","","","","","","","","","","","","","","","","",""
"null","<img style='width:200px; height:200px; margin-left: 95px; margin-right: 95px;' src='stim/fixation.png'>","null","html-keyboard-response","166","159808","0.0-8.0-0.13","","","","","","","","","","","","","","","","","","","","","","","",""
"427.00000014156103","<img src='stim/a/Field11.bmp'><img style='width:200px; height:200px; margin-bottom: 0px;' src='stim/fixation.png'><img src='stim/a/Field14.bmp'>","49","html-keyboard-response","167","160244","0.0-8.0-1.13","test","cd","","","","c","","48","Field11.bmp","Field14.bmp","Field14.bmp","GUID","1","00","10/09/2020","","","14","1","","keep_points.png","A","points","2"
"null","<img style='border: 5px solid #808080;' src='stim/a/Field11.bmp'><img style='width:200px; height:200px; margin-bottom: 0px;' src='stim/fixation.png'><img style='border: 5px solid #ffffff;  padding-left:15px;' src='stim/a/Field14.bmp'>","null","html-keyboard-response","168","160458","0.0-8.0-2.13","","","","","","","","","","","","","","","","","","","","","","","",""
"null","<img style='width:200px; height:200px; margin-left: 95px; margin-right: 95px;' src='stim/fixation.png'>","null","html-keyboard-response","169","161259","0.0-8.0-0.14","","","","","","","","","","","","","","","","","","","","","","","",""
"390.99999982863665","<img src='stim/a/Field14.bmp'><img style='width:200px; height:200px; margin-bottom: 0px;' src='stim/fixation.png'><img src='stim/a/Field16.bmp'>","49","html-keyboard-response","170","161656","0.0-8.0-1.14","test","ch","","","","c","","49","Field14.bmp","Field16.bmp","Field14.bmp","GUID","1","00","10/09/2020","","","15","1","","keep_points.png","A","points","2"
"null","<img style='border: 5px solid #808080;' src='stim/a/Field14.bmp'><img style='width:200px; height:200px; margin-bottom: 0px;' src='stim/fixation.png'><img style='border: 5px solid #ffffff;  padding-left:15px;' src='stim/a/Field16.bmp'>","null","html-keyboard-response","171","161860","0.0-8.0-2.14","","","","","","","","","","","","","","","","","","","","","","","",""
"null","<img style='width:200px; height:200px; margin-left: 95px; margin-right: 95px;' src='stim/fixation.png'>","null","html-keyboard-response","172","162669","0.0-8.0-0.15","","","","","","","","","","","","","","","","","","","","","","","",""
"415.9999997355044","<img src='stim/a/Field9.bmp'><img style='width:200px; height:200px; margin-bottom: 0px;' src='stim/fixation.png'><img src='stim/a/Field5.bmp'>","49","html-keyboard-response","173","163090","0.0-8.0-1.15","test","be","","","","e","","48","Field9.bmp","Field5.bmp","Field9.bmp","GUID","1","00","10/09/2020","","","16","1","","keep_points.png","A","points","2"
"null","<img style='border: 5px solid #808080;' src='stim/a/Field9.bmp'><img style='width:200px; height:200px; margin-bottom: 0px;' src='stim/fixation.png'><img style='border: 5px solid #ffffff;  padding-left:15px;' src='stim/a/Field5.bmp'>","null","html-keyboard-response","174","163293","0.0-8.0-2.15","","","","","","","","","","","","","","","","","","","","","","","",""
"null","<img style='width:200px; height:200px; margin-left: 95px; margin-right: 95px;' src='stim/fixation.png'>","null","html-keyboard-response","175","164094","0.0-8.0-0.16","","","","","","","","","","","","","","","","","","","","","","","",""
"483.99999970570207","<img src='stim/a/Field5.bmp'><img style='width:200px; height:200px; margin-bottom: 0px;' src='stim/fixation.png'><img src='stim/a/Field3.bmp'>","49","html-keyboard-response","176","164583","0.0-8.0-1.16","test","ab","","","","a","","48","Field5.bmp","Field3.bmp","Field3.bmp","GUID","1","00","10/09/2020","","","17","1","","keep_points.png","A","points","2"
"null","<img style='border: 5px solid #808080;' src='stim/a/Field5.bmp'><img style='width:200px; height:200px; margin-bottom: 0px;' src='stim/fixation.png'><img style='border: 5px solid #ffffff;  padding-left:15px;' src='stim/a/Field3.bmp'>","null","html-keyboard-response","177","164791","0.0-8.0-2.16","","","","","","","","","","","","","","","","","","","","","","","",""
"null","<img style='width:200px; height:200px; margin-left: 95px; margin-right: 95px;' src='stim/fixation.png'>","null","html-keyboard-response","178","165593","0.0-8.0-0.17","","","","","","","","","","","","","","","","","","","","","","","",""
"419.0000002272427","<img src='stim/a/Field11.bmp'><img style='width:200px; height:200px; margin-bottom: 0px;' src='stim/fixation.png'><img src='stim/a/Field15.bmp'>","49","html-keyboard-response","179","166022","0.0-8.0-1.17","test","dg","","","","g","","49","Field11.bmp","Field15.bmp","Field15.bmp","GUID","1","00","10/09/2020","","","18","1","","keep_points.png","A","points","2"
"null","<img style='border: 5px solid #808080;' src='stim/a/Field11.bmp'><img style='width:200px; height:200px; margin-bottom: 0px;' src='stim/fixation.png'><img style='border: 5px solid #ffffff;  padding-left:15px;' src='stim/a/Field15.bmp'>","null","html-keyboard-response","180","166230","0.0-8.0-2.17","","","","","","","","","","","","","","","","","","","","","","","",""
"null","<img style='width:200px; height:200px; margin-left: 95px; margin-right: 95px;' src='stim/fixation.png'>","null","html-keyboard-response","181","167032","0.0-8.0-0.18","","","","","","","","","","","","","","","","","","","","","","","",""
"421.99999978765845","<img src='stim/a/Field16.bmp'><img style='width:200px; height:200px; margin-bottom: 0px;' src='stim/fixation.png'><img src='stim/a/Field15.bmp'>","49","html-keyboard-response","182","167461","0.0-8.0-1.18","test","gh","","","","g","","48","Field16.bmp","Field15.bmp","Field15.bmp","GUID","1","00","10/09/2020","","","19","1","","keep_points.png","A","points","2"
"null","<img style='border: 5px solid #808080;' src='stim/a/Field16.bmp'><img style='width:200px; height:200px; margin-bottom: 0px;' src='stim/fixation.png'><img style='border: 5px solid #ffffff;  padding-left:15px;' src='stim/a/Field15.bmp'>","null","html-keyboard-response","183","167671","0.0-8.0-2.18","","","","","","","","","","","","","","","","","","","","","","","",""
"null","<img style='width:200px; height:200px; margin-left: 95px; margin-right: 95px;' src='stim/fixation.png'>","null","html-keyboard-response","184","168476","0.0-8.0-0.19","","","","","","","","","","","","","","","","","","","","","","","",""
"540.0000000372529","<img src='stim/a/Field3.bmp'><img style='width:200px; height:200px; margin-bottom: 0px;' src='stim/fixation.png'><img src='stim/a/Field12.bmp'>","49","html-keyboard-response","185","169022","0.0-8.0-1.19","test","af","","","","a","","49","Field3.bmp","Field12.bmp","Field3.bmp","GUID","1","00","10/09/2020","","","20","1","","keep_points.png","A","points","2"
"null","<img style='border: 5px solid #808080;' src='stim/a/Field3.bmp'><img style='width:200px; height:200px; margin-bottom: 0px;' src='stim/fixation.png'><img style='border: 5px solid #ffffff;  padding-left:15px;' src='stim/a/Field12.bmp'>","null","html-keyboard-response","186","169232","0.0-8.0-2.19","","","","","","","","","","","","","","","","","","","","","","","",""
"null","<img style='width:200px; height:200px; margin-left: 95px; margin-right: 95px;' src='stim/fixation.png'>","null","html-keyboard-response","187","170034","0.0-8.0-0.20","","","","","","","","","","","","","","","","","","","","","","","",""
"452.0000000484288","<img src='stim/a/Field15.bmp'><img style='width:200px; height:200px; margin-bottom: 0px;' src='stim/fixation.png'><img src='stim/a/Field16.bmp'>","49","html-keyboard-response","188","170492","0.0-8.0-1.20","test","gh","","","","g","","49","Field15.bmp","Field16.bmp","Field15.bmp","GUID","1","00","10/09/2020","","","21","1","","keep_points.png","A","points","2"
"null","<img style='border: 5px solid #808080;' src='stim/a/Field15.bmp'><img style='width:200px; height:200px; margin-bottom: 0px;' src='stim/fixation.png'><img style='border: 5px solid #ffffff;  padding-left:15px;' src='stim/a/Field16.bmp'>","null","html-keyboard-response","189","170696","0.0-8.0-2.20","","","","","","","","","","","","","","","","","","","","","","","",""
"null","<img style='width:200px; height:200px; margin-left: 95px; margin-right: 95px;' src='stim/fixation.png'>","null","html-keyboard-response","190","171498","0.0-8.0-0.21","","","","","","","","","","","","","","","","","","","","","","","",""
"581.9999999366701","<img src='stim/a/Field9.bmp'><img style='width:200px; height:200px; margin-bottom: 0px;' src='stim/fixation.png'><img src='stim/a/Field14.bmp'>","49","html-keyboard-response","191","172092","0.0-8.0-1.21","test","ce","","","","c","","48","Field9.bmp","Field14.bmp","Field14.bmp","GUID","1","00","10/09/2020","","","22","1","","keep_points.png","A","points","2"
"null","<img style='border: 5px solid #808080;' src='stim/a/Field9.bmp'><img style='width:200px; height:200px; margin-bottom: 0px;' src='stim/fixation.png'><img style='border: 5px solid #ffffff;  padding-left:15px;' src='stim/a/Field14.bmp'>","null","html-keyboard-response","192","172295","0.0-8.0-2.21","","","","","","","","","","","","","","","","","","","","","","","",""
"null","<img style='width:200px; height:200px; margin-left: 95px; margin-right: 95px;' src='stim/fixation.png'>","null","html-keyboard-response","193","173283","0.0-8.0-0.22","","","","","","","","","","","","","","","","","","","","","","","",""
"509.0000000782311","<img src='stim/a/Field12.bmp'><img style='width:200px; height:200px; margin-bottom: 0px;' src='stim/fixation.png'><img src='stim/a/Field14.bmp'>","49","html-keyboard-response","194","173797","0.0-8.0-1.22","test","cf","","","","c","","48","Field12.bmp","Field14.bmp","Field14.bmp","GUID","1","00","10/09/2020","","","23","1","","keep_points.png","A","points","2"
"null","<img style='border: 5px solid #808080;' src='stim/a/Field12.bmp'><img style='width:200px; height:200px; margin-bottom: 0px;' src='stim/fixation.png'><img style='border: 5px solid #ffffff;  padding-left:15px;' src='stim/a/Field14.bmp'>","null","html-keyboard-response","195","174006","0.0-8.0-2.22","","","","","","","","","","","","","","","","","","","","","","","",""
"null","<img style='width:200px; height:200px; margin-left: 95px; margin-right: 95px;' src='stim/fixation.png'>","null","html-keyboard-response","196","174809","0.0-8.0-0.23","","","","","","","","","","","","","","","","","","","","","","","",""
"370.0000001117587","<img src='stim/a/Field3.bmp'><img style='width:200px; height:200px; margin-bottom: 0px;' src='stim/fixation.png'><img src='stim/a/Field16.bmp'>","49","html-keyboard-response","197","175181","0.0-8.0-1.23","test","ah","","","","a","","49","Field3.bmp","Field16.bmp","Field3.bmp","GUID","1","00","10/09/2020","","","24","1","","keep_points.png","A","points","2"
"null","<img style='border: 5px solid #808080;' src='stim/a/Field3.bmp'><img style='width:200px; height:200px; margin-bottom: 0px;' src='stim/fixation.png'><img style='border: 5px solid #ffffff;  padding-left:15px;' src='stim/a/Field16.bmp'>","null","html-keyboard-response","198","175389","0.0-8.0-2.23","","","","","","","","","","","","","","","","","","","","","","","",""
"null","<img style='width:200px; height:200px; margin-left: 95px; margin-right: 95px;' src='stim/fixation.png'>","null","html-keyboard-response","199","176192","0.0-8.0-0.24","","","","","","","","","","","","","","","","","","","","","","","",""
"462.99999998882413","<img src='stim/a/Field15.bmp'><img style='width:200px; height:200px; margin-bottom: 0px;' src='stim/fixation.png'><img src='stim/a/Field14.bmp'>","49","html-keyboard-response","200","176661","0.0-8.0-1.24","test","cg","","","","c","","48","Field15.bmp","Field14.bmp","Field14.bmp","GUID","1","00","10/09/2020","","","25","1","","keep_points.png","A","points","2"
"null","<img style='border: 5px solid #808080;' src='stim/a/Field15.bmp'><img style='width:200px; height:200px; margin-bottom: 0px;' src='stim/fixation.png'><img style='border: 5px solid #ffffff;  padding-left:15px;' src='stim/a/Field14.bmp'>","null","html-keyboard-response","201","176866","0.0-8.0-2.24","","","","","","","","","","","","","","","","","","","","","","","",""
"null","<img style='width:200px; height:200px; margin-left: 95px; margin-right: 95px;' src='stim/fixation.png'>","null","html-keyboard-response","202","177670","0.0-8.0-0.25","","","","","","","","","","","","","","","","","","","","","","","",""
"324.00000002235174","<img src='stim/a/Field14.bmp'><img style='width:200px; height:200px; margin-bottom: 0px;' src='stim/fixation.png'><img src='stim/a/Field12.bmp'>","49","html-keyboard-response","203","178004","0.0-8.0-1.25","test","cf","","","","c","","49","Field14.bmp","Field12.bmp","Field14.bmp","GUID","1","00","10/09/2020","","","26","1","","keep_points.png","A","points","2"
"null","<img style='border: 5px solid #808080;' src='stim/a/Field14.bmp'><img style='width:200px; height:200px; margin-bottom: 0px;' src='stim/fixation.png'><img style='border: 5px solid #ffffff;  padding-left:15px;' src='stim/a/Field12.bmp'>","null","html-keyboard-response","204","178209","0.0-8.0-2.25","","","","","","","","","","","","","","","","","","","","","","","",""
"null","<img style='width:200px; height:200px; margin-left: 95px; margin-right: 95px;' src='stim/fixation.png'>","null","html-keyboard-response","205","179018","0.0-8.0-0.26","","","","","","","","","","","","","","","","","","","","","","","",""
"345.00000020489097","<img src='stim/a/Field16.bmp'><img style='width:200px; height:200px; margin-bottom: 0px;' src='stim/fixation.png'><img src='stim/a/Field3.bmp'>","49","html-keyboard-response","206","179372","0.0-8.0-1.26","test","ah","","","","a","","48","Field16.bmp","Field3.bmp","Field3.bmp","GUID","1","00","10/09/2020","","","27","1","","keep_points.png","A","points","2"
"null","<img style='border: 5px solid #808080;' src='stim/a/Field16.bmp'><img style='width:200px; height:200px; margin-bottom: 0px;' src='stim/fixation.png'><img style='border: 5px solid #ffffff;  padding-left:15px;' src='stim/a/Field3.bmp'>","null","html-keyboard-response","207","179578","0.0-8.0-2.26","","","","","","","","","","","","","","","","","","","","","","","",""
"null","<img style='width:200px; height:200px; margin-left: 95px; margin-right: 95px;' src='stim/fixation.png'>","null","html-keyboard-response","208","180379","0.0-8.0-0.27","","","","","","","","","","","","","","","","","","","","","","","",""
"412.99999970942736","<img src='stim/a/Field5.bmp'><img style='width:200px; height:200px; margin-bottom: 0px;' src='stim/fixation.png'><img src='stim/a/Field15.bmp'>","49","html-keyboard-response","209","180811","0.0-8.0-1.27","test","bg","","","","g","","49","Field5.bmp","Field15.bmp","Field15.bmp","GUID","1","00","10/09/2020","","","28","1","","keep_points.png","A","points","2"
"null","<img style='border: 5px solid #808080;' src='stim/a/Field5.bmp'><img style='width:200px; height:200px; margin-bottom: 0px;' src='stim/fixation.png'><img style='border: 5px solid #ffffff;  padding-left:15px;' src='stim/a/Field15.bmp'>","null","html-keyboard-response","210","181025","0.0-8.0-2.27","","","","","","","","","","","","","","","","","","","","","","","",""
"null","<img style='width:200px; height:200px; margin-left: 95px; margin-right: 95px;' src='stim/fixation.png'>","null","html-keyboard-response","211","181827","0.0-8.0-0.28","","","","","","","","","","","","","","","","","","","","","","","",""
"378.00000002607703","<img src='stim/a/Field15.bmp'><img style='width:200px; height:200px; margin-bottom: 0px;' src='stim/fixation.png'><img src='stim/a/Field5.bmp'>","49","html-keyboard-response","212","182211","0.0-8.0-1.28","test","bg","","","","g","","48","Field15.bmp","Field5.bmp","Field15.bmp","GUID","1","00","10/09/2020","","","29","1","","keep_points.png","A","points","2"
"null","<img style='border: 5px solid #808080;' src='stim/a/Field15.bmp'><img style='width:200px; height:200px; margin-bottom: 0px;' src='stim/fixation.png'><img style='border: 5px solid #ffffff;  padding-left:15px;' src='stim/a/Field5.bmp'>","null","html-keyboard-response","213","182418","0.0-8.0-2.28","","","","","","","","","","","","","","","","","","","","","","","",""
"null","<img style='width:200px; height:200px; margin-left: 95px; margin-right: 95px;' src='stim/fixation.png'>","null","html-keyboard-response","214","183221","0.0-8.0-0.29","","","","","","","","","","","","","","","","","","","","","","","",""
"350.99999979138374","<img src='stim/a/Field14.bmp'><img style='width:200px; height:200px; margin-bottom: 0px;' src='stim/fixation.png'><img src='stim/a/Field9.bmp'>","49","html-keyboard-response","215","183578","0.0-8.0-1.29","test","ce","","","","c","","49","Field14.bmp","Field9.bmp","Field14.bmp","GUID","1","00","10/09/2020","","","30","1","","keep_points.png","A","points","2"
"null","<img style='border: 5px solid #808080;' src='stim/a/Field14.bmp'><img style='width:200px; height:200px; margin-bottom: 0px;' src='stim/fixation.png'><img style='border: 5px solid #ffffff;  padding-left:15px;' src='stim/a/Field9.bmp'>","null","html-keyboard-response","216","183786","0.0-8.0-2.29","","","","","","","","","","","","","","","","","","","","","","","",""
"null","<img style='width:200px; height:200px; margin-left: 95px; margin-right: 95px;' src='stim/fixation.png'>","null","html-keyboard-response","217","184588","0.0-8.0-0.30","","","","","","","","","","","","","","","","","","","","","","","",""
"362.0000001974404","<img src='stim/a/Field15.bmp'><img style='width:200px; height:200px; margin-bottom: 0px;' src='stim/fixation.png'><img src='stim/a/Field11.bmp'>","49","html-keyboard-response","218","184955","0.0-8.0-1.30","test","dg","","","","g","","48","Field15.bmp","Field11.bmp","Field15.bmp","GUID","1","00","10/09/2020","","","31","1","","keep_points.png","A","points","2"
"null","<img style='border: 5px solid #808080;' src='stim/a/Field15.bmp'><img style='width:200px; height:200px; margin-bottom: 0px;' src='stim/fixation.png'><img style='border: 5px solid #ffffff;  padding-left:15px;' src='stim/a/Field11.bmp'>","null","html-keyboard-response","219","185162","0.0-8.0-2.30","","","","","","","","","","","","","","","","","","","","","","","",""
"null","<img style='width:200px; height:200px; margin-left: 95px; margin-right: 95px;' src='stim/fixation.png'>","null","html-keyboard-response","220","185976","0.0-8.0-0.31","","","","","","","","","","","","","","","","","","","","","","","",""
"324.9999997206032","<img src='stim/a/Field14.bmp'><img style='width:200px; height:200px; margin-bottom: 0px;' src='stim/fixation.png'><img src='stim/a/Field15.bmp'>","49","html-keyboard-response","221","186335","0.0-8.0-1.31","test","cg","","","","c","","49","Field14.bmp","Field15.bmp","Field14.bmp","GUID","1","00","10/09/2020","","","32","1","","keep_points.png","A","points","2"
"null","<img style='border: 5px solid #808080;' src='stim/a/Field14.bmp'><img style='width:200px; height:200px; margin-bottom: 0px;' src='stim/fixation.png'><img style='border: 5px solid #ffffff;  padding-left:15px;' src='stim/a/Field15.bmp'>","null","html-keyboard-response","222","186539","0.0-8.0-2.31","","","","","","","","","","","","","","","","","","","","","","","",""
"null","<img style='width:200px; height:200px; margin-left: 95px; margin-right: 95px;' src='stim/fixation.png'>","null","html-keyboard-response","223","187341","0.0-8.0-0.32","","","","","","","","","","","","","","","","","","","","","","","",""
"337.99999998882413","<img src='stim/a/Field15.bmp'><img style='width:200px; height:200px; margin-bottom: 0px;' src='stim/fixation.png'><img src='stim/a/Field3.bmp'>","49","html-keyboard-response","224","187685","0.0-8.0-1.32","test","ag","","","","a","","48","Field15.bmp","Field3.bmp","Field3.bmp","GUID","1","00","10/09/2020","","","33","1","","keep_points.png","A","points","2"
"null","<img style='border: 5px solid #808080;' src='stim/a/Field15.bmp'><img style='width:200px; height:200px; margin-bottom: 0px;' src='stim/fixation.png'><img style='border: 5px solid #ffffff;  padding-left:15px;' src='stim/a/Field3.bmp'>","null","html-keyboard-response","225","187890","0.0-8.0-2.32","","","","","","","","","","","","","","","","","","","","","","","",""
"null","<img style='width:200px; height:200px; margin-left: 95px; margin-right: 95px;' src='stim/fixation.png'>","null","html-keyboard-response","226","188693","0.0-8.0-0.33","","","","","","","","","","","","","","","","","","","","","","","",""
"363.00000036135316","<img src='stim/a/Field3.bmp'><img style='width:200px; height:200px; margin-bottom: 0px;' src='stim/fixation.png'><img src='stim/a/Field9.bmp'>","49","html-keyboard-response","227","189060","0.0-8.0-1.33","test","ae","","","","a","","49","Field3.bmp","Field9.bmp","Field3.bmp","GUID","1","00","10/09/2020","","","34","1","","keep_points.png","A","points","2"
"null","<img style='border: 5px solid #808080;' src='stim/a/Field3.bmp'><img style='width:200px; height:200px; margin-bottom: 0px;' src='stim/fixation.png'><img style='border: 5px solid #ffffff;  padding-left:15px;' src='stim/a/Field9.bmp'>","null","html-keyboard-response","228","189264","0.0-8.0-2.33","","","","","","","","","","","","","","","","","","","","","","","",""
"null","<img style='width:200px; height:200px; margin-left: 95px; margin-right: 95px;' src='stim/fixation.png'>","null","html-keyboard-response","229","190068","0.0-8.0-0.34","","","","","","","","","","","","","","","","","","","","","","","",""
"402.9999999329448","<img src='stim/a/Field3.bmp'><img style='width:200px; height:200px; margin-bottom: 0px;' src='stim/fixation.png'><img src='stim/a/Field5.bmp'>","49","html-keyboard-response","230","190475","0.0-8.0-1.34","test","ab","","","","a","","49","Field3.bmp","Field5.bmp","Field3.bmp","GUID","1","00","10/09/2020","","","35","1","","keep_points.png","A","points","2"
"null","<img style='border: 5px solid #808080;' src='stim/a/Field3.bmp'><img style='width:200px; height:200px; margin-bottom: 0px;' src='stim/fixation.png'><img style='border: 5px solid #ffffff;  padding-left:15px;' src='stim/a/Field5.bmp'>","null","html-keyboard-response","231","190680","0.0-8.0-2.34","","","","","","","","","","","","","","","","","","","","","","","",""
"null","<img style='width:200px; height:200px; margin-left: 95px; margin-right: 95px;' src='stim/fixation.png'>","null","html-keyboard-response","232","191483","0.0-8.0-0.35","","","","","","","","","","","","","","","","","","","","","","","",""
"347.0000000670552","<img src='stim/a/Field14.bmp'><img style='width:200px; height:200px; margin-bottom: 0px;' src='stim/fixation.png'><img src='stim/a/Field16.bmp'>","49","html-keyboard-response","233","191838","0.0-8.0-1.35","test","ch","","","","c","","49","Field14.bmp","Field16.bmp","Field14.bmp","GUID","1","00","10/09/2020","","","36","1","","keep_points.png","A","points","2"
"null","<img style='border: 5px solid #808080;' src='stim/a/Field14.bmp'><img style='width:200px; height:200px; margin-bottom: 0px;' src='stim/fixation.png'><img style='border: 5px solid #ffffff;  padding-left:15px;' src='stim/a/Field16.bmp'>","null","html-keyboard-response","234","192043","0.0-8.0-2.35","","","","","","","","","","","","","","","","","","","","","","","",""
"null","<img style='width:200px; height:200px; margin-left: 95px; margin-right: 95px;' src='stim/fixation.png'>","null","html-keyboard-response","235","192846","0.0-8.0-0.36","","","","","","","","","","","","","","","","","","","","","","","",""
"322.0000001601875","<img src='stim/a/Field14.bmp'><img style='width:200px; height:200px; margin-bottom: 0px;' src='stim/fixation.png'><img src='stim/a/Field11.bmp'>","49","html-keyboard-response","236","193172","0.0-8.0-1.36","test","cd","","","","c","","49","Field14.bmp","Field11.bmp","Field14.bmp","GUID","1","00","10/09/2020","","","37","1","","keep_points.png","A","points","2"
"null","<img style='border: 5px solid #808080;' src='stim/a/Field14.bmp'><img style='width:200px; height:200px; margin-bottom: 0px;' src='stim/fixation.png'><img style='border: 5px solid #ffffff;  padding-left:15px;' src='stim/a/Field11.bmp'>","null","html-keyboard-response","237","193376","0.0-8.0-2.36","","","","","","","","","","","","","","","","","","","","","","","",""
"null","<img style='width:200px; height:200px; margin-left: 95px; margin-right: 95px;' src='stim/fixation.png'>","null","html-keyboard-response","238","194176","0.0-8.0-0.37","","","","","","","","","","","","","","","","","","","","","","","",""
"351.00000025704503","<img src='stim/a/Field5.bmp'><img style='width:200px; height:200px; margin-bottom: 0px;' src='stim/fixation.png'><img src='stim/a/Field15.bmp'>","49","html-keyboard-response","239","194541","0.0-8.0-1.37","test","bg","","","","g","","49","Field5.bmp","Field15.bmp","Field15.bmp","GUID","1","00","10/09/2020","","","38","1","","keep_points.png","A","points","2"
"null","<img style='border: 5px solid #808080;' src='stim/a/Field5.bmp'><img style='width:200px; height:200px; margin-bottom: 0px;' src='stim/fixation.png'><img style='border: 5px solid #ffffff;  padding-left:15px;' src='stim/a/Field15.bmp'>","null","html-keyboard-response","240","194747","0.0-8.0-2.37","","","","","","","","","","","","","","","","","","","","","","","",""
"null","<img style='width:200px; height:200px; margin-left: 95px; margin-right: 95px;' src='stim/fixation.png'>","null","html-keyboard-response","241","195548","0.0-8.0-0.38","","","","","","","","","","","","","","","","","","","","","","","",""
"302.00000014156103","<img src='stim/a/Field12.bmp'><img style='width:200px; height:200px; margin-bottom: 0px;' src='stim/fixation.png'><img src='stim/a/Field9.bmp'>","49","html-keyboard-response","242","195855","0.0-8.0-1.38","test","ef","","","","e","","48","Field12.bmp","Field9.bmp","Field9.bmp","GUID","1","00","10/09/2020","","","39","1","","keep_points.png","A","points","2"
"null","<img style='border: 5px solid #808080;' src='stim/a/Field12.bmp'><img style='width:200px; height:200px; margin-bottom: 0px;' src='stim/fixation.png'><img style='border: 5px solid #ffffff;  padding-left:15px;' src='stim/a/Field9.bmp'>","null","html-keyboard-response","243","196061","0.0-8.0-2.38","","","","","","","","","","","","","","","","","","","","","","","",""
"null","<img style='width:200px; height:200px; margin-left: 95px; margin-right: 95px;' src='stim/fixation.png'>","null","html-keyboard-response","244","196865","0.0-8.0-0.39","","","","","","","","","","","","","","","","","","","","","","","",""
"325.0000001862645","<img src='stim/a/Field14.bmp'><img style='width:200px; height:200px; margin-bottom: 0px;' src='stim/fixation.png'><img src='stim/a/Field12.bmp'>","49","html-keyboard-response","245","197196","0.0-8.0-1.39","test","cf","","","","c","","49","Field14.bmp","Field12.bmp","Field14.bmp","GUID","1","00","10/09/2020","","","40","1","","keep_points.png","A","points","2"
"null","<img style='border: 5px solid #808080;' src='stim/a/Field14.bmp'><img style='width:200px; height:200px; margin-bottom: 0px;' src='stim/fixation.png'><img style='border: 5px solid #ffffff;  padding-left:15px;' src='stim/a/Field12.bmp'>","null","html-keyboard-response","246","197401","0.0-8.0-2.39","","","","","","","","","","","","","","","","","","","","","","","",""
"null","<img style='width:200px; height:200px; margin-left: 95px; margin-right: 95px;' src='stim/fixation.png'>","null","html-keyboard-response","247","198207","0.0-8.0-0.40","","","","","","","","","","","","","","","","","","","","","","","",""
"300.99999997764826","<img src='stim/a/Field11.bmp'><img style='width:200px; height:200px; margin-bottom: 0px;' src='stim/fixation.png'><img src='stim/a/Field15.bmp'>","49","html-keyboard-response","248","198516","0.0-8.0-1.40","test","dg","","","","g","","49","Field11.bmp","Field15.bmp","Field15.bmp","GUID","1","00","10/09/2020","","","41","1","","keep_points.png","A","points","2"
"null","<img style='border: 5px solid #808080;' src='stim/a/Field11.bmp'><img style='width:200px; height:200px; margin-bottom: 0px;' src='stim/fixation.png'><img style='border: 5px solid #ffffff;  padding-left:15px;' src='stim/a/Field15.bmp'>","null","html-keyboard-response","249","198722","0.0-8.0-2.40","","","","","","","","","","","","","","","","","","","","","","","",""
"null","<img style='width:200px; height:200px; margin-left: 95px; margin-right: 95px;' src='stim/fixation.png'>","null","html-keyboard-response","250","199523","0.0-8.0-0.41","","","","","","","","","","","","","","","","","","","","","","","",""
"382.9999999143183","<img src='stim/a/Field14.bmp'><img style='width:200px; height:200px; margin-bottom: 0px;' src='stim/fixation.png'><img src='stim/a/Field15.bmp'>","49","html-keyboard-response","251","199913","0.0-8.0-1.41","test","cg","","","","c","","49","Field14.bmp","Field15.bmp","Field14.bmp","GUID","1","00","10/09/2020","","","42","1","","keep_points.png","A","points","2"
"null","<img style='border: 5px solid #808080;' src='stim/a/Field14.bmp'><img style='width:200px; height:200px; margin-bottom: 0px;' src='stim/fixation.png'><img style='border: 5px solid #ffffff;  padding-left:15px;' src='stim/a/Field15.bmp'>","null","html-keyboard-response","252","200118","0.0-8.0-2.41","","","","","","","","","","","","","","","","","","","","","","","",""
"null","<img style='width:200px; height:200px; margin-left: 95px; margin-right: 95px;' src='stim/fixation.png'>","null","html-keyboard-response","253","200926","0.0-8.0-0.42","","","","","","","","","","","","","","","","","","","","","","","",""
"290.9999997355044","<img src='stim/a/Field11.bmp'><img style='width:200px; height:200px; margin-bottom: 0px;' src='stim/fixation.png'><img src='stim/a/Field14.bmp'>","49","html-keyboard-response","254","201229","0.0-8.0-1.42","test","cd","","","","c","","48","Field11.bmp","Field14.bmp","Field14.bmp","GUID","1","00","10/09/2020","","","43","1","","keep_points.png","A","points","2"
"null","<img style='border: 5px solid #808080;' src='stim/a/Field11.bmp'><img style='width:200px; height:200px; margin-bottom: 0px;' src='stim/fixation.png'><img style='border: 5px solid #ffffff;  padding-left:15px;' src='stim/a/Field14.bmp'>","null","html-keyboard-response","255","201432","0.0-8.0-2.42","","","","","","","","","","","","","","","","","","","","","","","",""
"null","<img style='width:200px; height:200px; margin-left: 95px; margin-right: 95px;' src='stim/fixation.png'>","null","html-keyboard-response","256","202237","0.0-8.0-0.43","","","","","","","","","","","","","","","","","","","","","","","",""
"316.9999998062849","<img src='stim/a/Field16.bmp'><img style='width:200px; height:200px; margin-bottom: 0px;' src='stim/fixation.png'><img src='stim/a/Field14.bmp'>","49","html-keyboard-response","257","202564","0.0-8.0-1.43","test","ch","","","","c","","48","Field16.bmp","Field14.bmp","Field14.bmp","GUID","1","00","10/09/2020","","","44","1","","keep_points.png","A","points","2"
"null","<img style='border: 5px solid #808080;' src='stim/a/Field16.bmp'><img style='width:200px; height:200px; margin-bottom: 0px;' src='stim/fixation.png'><img style='border: 5px solid #ffffff;  padding-left:15px;' src='stim/a/Field14.bmp'>","null","html-keyboard-response","258","202772","0.0-8.0-2.43","","","","","","","","","","","","","","","","","","","","","","","",""
"null","<img style='width:200px; height:200px; margin-left: 95px; margin-right: 95px;' src='stim/fixation.png'>","null","html-keyboard-response","259","203574","0.0-8.0-0.44","","","","","","","","","","","","","","","","","","","","","","","",""
"313.9999997802079","<img src='stim/a/Field9.bmp'><img style='width:200px; height:200px; margin-bottom: 0px;' src='stim/fixation.png'><img src='stim/a/Field14.bmp'>","49","html-keyboard-response","260","203894","0.0-8.0-1.44","test","ce","","","","c","","48","Field9.bmp","Field14.bmp","Field14.bmp","GUID","1","00","10/09/2020","","","45","1","","keep_points.png","A","points","2"
"null","<img style='border: 5px solid #808080;' src='stim/a/Field9.bmp'><img style='width:200px; height:200px; margin-bottom: 0px;' src='stim/fixation.png'><img style='border: 5px solid #ffffff;  padding-left:15px;' src='stim/a/Field14.bmp'>","null","html-keyboard-response","261","204107","0.0-8.0-2.44","","","","","","","","","","","","","","","","","","","","","","","",""
"null","<img style='width:200px; height:200px; margin-left: 95px; margin-right: 95px;' src='stim/fixation.png'>","null","html-keyboard-response","262","204911","0.0-8.0-0.45","","","","","","","","","","","","","","","","","","","","","","","",""
"373.00000013783574","<img src='stim/a/Field3.bmp'><img style='width:200px; height:200px; margin-bottom: 0px;' src='stim/fixation.png'><img src='stim/a/Field16.bmp'>","49","html-keyboard-response","263","205289","0.0-8.0-1.45","test","ah","","","","a","","49","Field3.bmp","Field16.bmp","Field3.bmp","GUID","1","00","10/09/2020","","","46","1","","keep_points.png","A","points","2"
"null","<img style='border: 5px solid #808080;' src='stim/a/Field3.bmp'><img style='width:200px; height:200px; margin-bottom: 0px;' src='stim/fixation.png'><img style='border: 5px solid #ffffff;  padding-left:15px;' src='stim/a/Field16.bmp'>","null","html-keyboard-response","264","205516","0.0-8.0-2.45","","","","","","","","","","","","","","","","","","","","","","","",""
"null","<img style='width:200px; height:200px; margin-left: 95px; margin-right: 95px;' src='stim/fixation.png'>","null","html-keyboard-response","265","206320","0.0-8.0-0.46","","","","","","","","","","","","","","","","","","","","","","","",""
"283.99999998509884","<img src='stim/a/Field11.bmp'><img style='width:200px; height:200px; margin-bottom: 0px;' src='stim/fixation.png'><img src='stim/a/Field9.bmp'>","49","html-keyboard-response","266","206621","0.0-8.0-1.46","test","de","","","","e","","49","Field11.bmp","Field9.bmp","Field9.bmp","GUID","1","00","10/09/2020","","","47","1","","keep_points.png","A","points","2"
"null","<img style='border: 5px solid #808080;' src='stim/a/Field11.bmp'><img style='width:200px; height:200px; margin-bottom: 0px;' src='stim/fixation.png'><img style='border: 5px solid #ffffff;  padding-left:15px;' src='stim/a/Field9.bmp'>","null","html-keyboard-response","267","206832","0.0-8.0-2.46","","","","","","","","","","","","","","","","","","","","","","","",""
"null","<img style='width:200px; height:200px; margin-left: 95px; margin-right: 95px;' src='stim/fixation.png'>","null","html-keyboard-response","268","207636","0.0-8.0-0.47","","","","","","","","","","","","","","","","","","","","","","","",""
"302.00000014156103","<img src='stim/a/Field12.bmp'><img style='width:200px; height:200px; margin-bottom: 0px;' src='stim/fixation.png'><img src='stim/a/Field14.bmp'>","49","html-keyboard-response","269","207965","0.0-8.0-1.47","test","cf","","","","c","","48","Field12.bmp","Field14.bmp","Field14.bmp","GUID","1","00","10/09/2020","","","48","1","","keep_points.png","A","points","2"
"null","<img style='border: 5px solid #808080;' src='stim/a/Field12.bmp'><img style='width:200px; height:200px; margin-bottom: 0px;' src='stim/fixation.png'><img style='border: 5px solid #ffffff;  padding-left:15px;' src='stim/a/Field14.bmp'>","null","html-keyboard-response","270","208170","0.0-8.0-2.47","","","","","","","","","","","","","","","","","","","","","","","",""
"null","<img style='width:200px; height:200px; margin-left: 95px; margin-right: 95px;' src='stim/fixation.png'>","null","html-keyboard-response","271","208973","0.0-8.0-0.48","","","","","","","","","","","","","","","","","","","","","","","",""
"322.99999985843897","<img src='stim/a/Field14.bmp'><img style='width:200px; height:200px; margin-bottom: 0px;' src='stim/fixation.png'><img src='stim/a/Field9.bmp'>","49","html-keyboard-response","272","209305","0.0-8.0-1.48","test","ce","","","","c","","49","Field14.bmp","Field9.bmp","Field14.bmp","GUID","1","00","10/09/2020","","","49","1","","keep_points.png","A","points","2"
"null","<img style='border: 5px solid #808080;' src='stim/a/Field14.bmp'><img style='width:200px; height:200px; margin-bottom: 0px;' src='stim/fixation.png'><img style='border: 5px solid #ffffff;  padding-left:15px;' src='stim/a/Field9.bmp'>","null","html-keyboard-response","273","209512","0.0-8.0-2.48","","","","","","","","","","","","","","","","","","","","","","","",""
"null","<img style='width:200px; height:200px; margin-left: 95px; margin-right: 95px;' src='stim/fixation.png'>","null","html-keyboard-response","274","210315","0.0-8.0-0.49","","","","","","","","","","","","","","","","","","","","","","","",""
"337.99999998882413","<img src='stim/a/Field9.bmp'><img style='width:200px; height:200px; margin-bottom: 0px;' src='stim/fixation.png'><img src='stim/a/Field11.bmp'>","49","html-keyboard-response","275","210665","0.0-8.0-1.49","test","de","","","","e","","48","Field9.bmp","Field11.bmp","Field9.bmp","GUID","1","00","10/09/2020","","","50","1","","keep_points.png","A","points","2"
"null","<img style='border: 5px solid #808080;' src='stim/a/Field9.bmp'><img style='width:200px; height:200px; margin-bottom: 0px;' src='stim/fixation.png'><img style='border: 5px solid #ffffff;  padding-left:15px;' src='stim/a/Field11.bmp'>","null","html-keyboard-response","276","210871","0.0-8.0-2.49","","","","","","","","","","","","","","","","","","","","","","","",""
"null","<img style='width:200px; height:200px; margin-left: 95px; margin-right: 95px;' src='stim/fixation.png'>","null","html-keyboard-response","277","211675","0.0-8.0-0.50","","","","","","","","","","","","","","","","","","","","","","","",""
"294.9999999254942","<img src='stim/a/Field9.bmp'><img style='width:200px; height:200px; margin-bottom: 0px;' src='stim/fixation.png'><img src='stim/a/Field5.bmp'>","49","html-keyboard-response","278","211975","0.0-8.0-1.50","test","be","","","","e","","48","Field9.bmp","Field5.bmp","Field9.bmp","GUID","1","00","10/09/2020","","","51","1","","keep_points.png","A","points","2"
"null","<img style='border: 5px solid #808080;' src='stim/a/Field9.bmp'><img style='width:200px; height:200px; margin-bottom: 0px;' src='stim/fixation.png'><img style='border: 5px solid #ffffff;  padding-left:15px;' src='stim/a/Field5.bmp'>","null","html-keyboard-response","279","212179","0.0-8.0-2.50","","","","","","","","","","","","","","","","","","","","","","","",""
"null","<img style='width:200px; height:200px; margin-left: 95px; margin-right: 95px;' src='stim/fixation.png'>","null","html-keyboard-response","280","212980","0.0-8.0-0.51","","","","","","","","","","","","","","","","","","","","","","","",""
"297.9999999515712","<img src='stim/a/Field9.bmp'><img style='width:200px; height:200px; margin-bottom: 0px;' src='stim/fixation.png'><img src='stim/a/Field3.bmp'>","49","html-keyboard-response","281","213286","0.0-8.0-1.51","test","ae","","","","a","","48","Field9.bmp","Field3.bmp","Field3.bmp","GUID","1","00","10/09/2020","","","52","1","","keep_points.png","A","points","2"
"null","<img style='border: 5px solid #808080;' src='stim/a/Field9.bmp'><img style='width:200px; height:200px; margin-bottom: 0px;' src='stim/fixation.png'><img style='border: 5px solid #ffffff;  padding-left:15px;' src='stim/a/Field3.bmp'>","null","html-keyboard-response","282","213491","0.0-8.0-2.51","","","","","","","","","","","","","","","","","","","","","","","",""
"null","<img style='width:200px; height:200px; margin-left: 95px; margin-right: 95px;' src='stim/fixation.png'>","null","html-keyboard-response","283","214295","0.0-8.0-0.52","","","","","","","","","","","","","","","","","","","","","","","",""
"304.9999997019768","<img src='stim/a/Field3.bmp'><img style='width:200px; height:200px; margin-bottom: 0px;' src='stim/fixation.png'><img src='stim/a/Field15.bmp'>","49","html-keyboard-response","284","214607","0.0-8.0-1.52","test","ag","","","","a","","49","Field3.bmp","Field15.bmp","Field3.bmp","GUID","1","00","10/09/2020","","","53","1","","keep_points.png","A","points","2"
"null","<img style='border: 5px solid #808080;' src='stim/a/Field3.bmp'><img style='width:200px; height:200px; margin-bottom: 0px;' src='stim/fixation.png'><img style='border: 5px solid #ffffff;  padding-left:15px;' src='stim/a/Field15.bmp'>","null","html-keyboard-response","285","214812","0.0-8.0-2.52","","","","","","","","","","","","","","","","","","","","","","","",""
"null","<img style='width:200px; height:200px; margin-left: 95px; margin-right: 95px;' src='stim/fixation.png'>","null","html-keyboard-response","286","215615","0.0-8.0-0.53","","","","","","","","","","","","","","","","","","","","","","","",""
"345.00000020489097","<img src='stim/a/Field15.bmp'><img style='width:200px; height:200px; margin-bottom: 0px;' src='stim/fixation.png'><img src='stim/a/Field14.bmp'>","49","html-keyboard-response","287","215966","0.0-8.0-1.53","test","cg","","","","c","","48","Field15.bmp","Field14.bmp","Field14.bmp","GUID","1","00","10/09/2020","","","54","1","","keep_points.png","A","points","2"
