"rt","stimulus","key_press","trial_type","trial_index","time_elapsed","internal_node_id","test_part","pair","pair_validity","trial_validity","pair_trials_per_block","pair_best_choice","reward_type","correct_response","stim_left","stim_right","stim_best_choice","subjectkey","src_subject_id","interview_date","interview_age","sex","handedness","trial","block","accuracy","reward_tally","stim_feedback","stim_set","reward_set"
"326.024999999845","<h3 style=""color:#0ed145;"">Welcome to the experiment!</h3><p>Press the spacebar to continue.</p>","32","html-keyboard-response","0","330","0.0-0.0","","","","","","","","","","","","","","","","","","","","","","","",""
"158.0500000000029","<p>In this task you will see two pictures side-by-side on the computer screen.</p><p>In each pair of pictures you see on the screen, one picture will be better than the other.</p><p>You need to figure out which picture in each pair is the better one.</p><p>Press the spacebar to continue.</p>","32","html-keyboard-response","1","490","0.0-1.0","","","","","","","","","","","","","","","","","","","","","","","",""
"202.02500000004875","<p>The better picture in each pair will be more likely to either:</p><p>A) win you some points,</p><p>or</p><p>B) allow you to keep the points you've already earned.</p><p>Press the spacebar to continue.</p>","32","html-keyboard-response","2","693","0.0-2.0","","","","","","","","","","","","","","","","","","","","","","","",""
"91.95500000032553","<p>On those trials where you can A) win points, you will want to select the picture most likely to earn points:</p><img style=""height:100px; width:100px"" src=""stim/winpoints.bmp""</img><p>Because if you keep seeing this feedback:</p><img style=""height:125px; width:125px"" src=""stim/not_winner.png""></img><p>you probably aren't selecting the best picture...</p><p>Press the spacebar to continue.</p>","32","html-keyboard-response","3","788","0.0-3.0","","","","","","","","","","","","","","","","","","","","","","","",""
"94.87500000022919","<p>On those trials where you can B) lose points, you will want to select the picture most likely to give this feedback:</p><img style=""height:125px; width:125px"" src=""stim/keep_points.png""></img><p>Because if you keep seeing this:</p><img style=""height:100px; width:100px"" src=""stim/losepoints.bmp""></img><p>you probably aren't selecting the best picture...</p><p>Press the spacebar to continue.</p>","32","html-keyboard-response","4","886","0.0-4.0","","","","","","","","","","","","","","","","","","","","","","","",""
"88.14499999971304","<p>Press the 1 key on your keyboard to select the picture on the LEFT.</p><p>Press the 0 key on your keyboard to select the picture on the RIGHT.</p><p>Press the spacebar to continue.</p>","32","html-keyboard-response","5","975","0.0-5.0","","","","","","","","","","","","","","","","","","","","","","","",""
"1627.4349999998776","<p>First, you will do some practice trials.</p> <p>Press either response button when you are ready to begin.</p>","48","html-keyboard-response","6","2604","0.0-6.0","","","","","","","","","","","","","","","","","","","","","","","",""
"null","<img style='width:200px; height:200px; margin-left: 95px; margin-right: 95px;' src='stim/fixation.png'>","null","html-keyboard-response","7","3109","0.0-7.0-0.0","","","","","","","","","","","","","","","","","","","","","","","",""
"432.4900000001435","<img src='stim/b/wheat_with_farmhouse.jpg'><img style='width:200px; height:200px; margin-bottom: 0px;' src='stim/fixation.png'><img src='stim/b/Trees_with_flowers.jpg'>","48","html-keyboard-response","8","3548","0.0-7.0-1.0","practice","ef","1","valid","6","e","avoid:lose","48","wheat_with_farmhouse.jpg","Trees_with_flowers.jpg","Trees_with_flowers.jpg","GUID","1123","11/11/2020","12","M","right","-1","1","1","0","keep_points.png","B","points"
"null","<img style='border: 5px solid #ffffff; padding-right:15px;' src='stim/b/wheat_with_farmhouse.jpg'><img style='width:150px; height:150px; padding-right: 50px; padding-left: 50px; margin-bottom: 25px;' src='stim/keep_points.png'><img style='border: 5px solid #808080;'src='stim/b/Trees_with_flowers.jpg'>","null","html-keyboard-response","9","4554","0.0-7.0-2.0","","","","","","","","","","","","","","","","","","","","","","","",""
"null","<img style='width:200px; height:200px; margin-left: 95px; margin-right: 95px;' src='stim/fixation.png'>","null","html-keyboard-response","10","5558","0.0-7.0-0.1","","","","","","","","","","","","","","","","","","","","","","","",""
"274.75000000004","<img src='stim/b/closeWater_pines_mountains.jpg'><img style='width:200px; height:200px; margin-bottom: 0px;' src='stim/fixation.png'><img src='stim/b/African_landscape.jpg'>","48","html-keyboard-response","11","5837","0.0-7.0-1.1","practice","ab","1","valid","6","a","win:stay","48","closeWater_pines_mountains.jpg","African_landscape.jpg","African_landscape.jpg","GUID","1123","11/11/2020","12","M","right","-1","1","1","5","winpoints.bmp","B","points"
"null","<img style='border: 5px solid #ffffff; padding-right:15px;' src='stim/b/closeWater_pines_mountains.jpg'><img style='width:150px; height:150px; padding-right: 50px; padding-left: 50px; margin-bottom: 25px;' src='stim/winpoints.bmp'><img style='border: 5px solid #808080;'src='stim/b/African_landscape.jpg'>","null","html-keyboard-response","12","6843","0.0-7.0-2.1","","","","","","","","","","","","","","","","","","","","","","","",""
"null","<img style='width:200px; height:200px; margin-left: 95px; margin-right: 95px;' src='stim/fixation.png'>","null","html-keyboard-response","13","7851","0.0-7.0-0.2","","","","","","","","","","","","","","","","","","","","","","","",""
"1704.3300000000236","<img src='stim/b/Trees_with_flowers.jpg'><img style='width:200px; height:200px; margin-bottom: 0px;' src='stim/fixation.png'><img src='stim/b/wheat_with_farmhouse.jpg'>","49","html-keyboard-response","14","9560","0.0-7.0-1.2","practice","ef","1","valid","6","e","avoid:lose","49","Trees_with_flowers.jpg","wheat_with_farmhouse.jpg","Trees_with_flowers.jpg","GUID","1123","11/11/2020","12","M","right","-1","1","1","5","keep_points.png","B","points"
"null","<img style='border: 5px solid #808080;' src='stim/b/Trees_with_flowers.jpg'><img style='width:150px; height:150px; padding-right: 50px; padding-left: 50px; margin-bottom: 25px;' src='stim/keep_points.png'><img style='border: 5px solid #ffffff;  padding-left:15px;' src='stim/b/wheat_with_farmhouse.jpg'>","null","html-keyboard-response","15","10561","0.0-7.0-2.2","","","","","","","","","","","","","","","","","","","","","","","",""
"null","<img style='width:200px; height:200px; margin-left: 95px; margin-right: 95px;' src='stim/fixation.png'>","null","html-keyboard-response","16","11564","0.0-7.0-0.3","","","","","","","","","","","","","","","","","","","","","","","",""
"193.33499999993364","<img src='stim/b/closeWater_pines_mountains.jpg'><img style='width:200px; height:200px; margin-bottom: 0px;' src='stim/fixation.png'><img src='stim/b/African_landscape.jpg'>","48","html-keyboard-response","17","11761","0.0-7.0-1.3","practice","ab","1","valid","6","a","win:stay","48","closeWater_pines_mountains.jpg","African_landscape.jpg","African_landscape.jpg","GUID","1123","11/11/2020","12","M","right","-1","1","1","10","winpoints.bmp","B","points"
"null","<img style='border: 5px solid #ffffff; padding-right:15px;' src='stim/b/closeWater_pines_mountains.jpg'><img style='width:150px; height:150px; padding-right: 50px; padding-left: 50px; margin-bottom: 25px;' src='stim/winpoints.bmp'><img style='border: 5px solid #808080;'src='stim/b/African_landscape.jpg'>","null","html-keyboard-response","18","12768","0.0-7.0-2.3","","","","","","","","","","","","","","","","","","","","","","","",""
"null","<img style='width:200px; height:200px; margin-left: 95px; margin-right: 95px;' src='stim/fixation.png'>","null","html-keyboard-response","19","13772","0.0-7.0-0.4","","","","","","","","","","","","","","","","","","","","","","","",""
"185.23999999979424","<img src='stim/b/Trees_with_flowers.jpg'><img style='width:200px; height:200px; margin-bottom: 0px;' src='stim/fixation.png'><img src='stim/b/wheat_with_farmhouse.jpg'>","48","html-keyboard-response","20","13962","0.0-7.0-1.4","practice","ef","1","valid","6","e","avoid:lose","49","Trees_with_flowers.jpg","wheat_with_farmhouse.jpg","Trees_with_flowers.jpg","GUID","1123","11/11/2020","12","M","right","-1","1","0","4.949999999999999","losepoints.bmp","B","points"
"null","<img style='border: 5px solid #ffffff; padding-right:15px;' src='stim/b/Trees_with_flowers.jpg'><img style='width:150px; height:150px; padding-right: 50px; padding-left: 50px; margin-bottom: 25px;' src='stim/losepoints.bmp'><img style='border: 5px solid #808080;'src='stim/b/wheat_with_farmhouse.jpg'>","null","html-keyboard-response","21","14969","0.0-7.0-2.4","","","","","","","","","","","","","","","","","","","","","","","",""
"null","<img style='width:200px; height:200px; margin-left: 95px; margin-right: 95px;' src='stim/fixation.png'>","null","html-keyboard-response","22","15973","0.0-7.0-0.5","","","","","","","","","","","","","","","","","","","","","","","",""
"273.5050000001211","<img src='stim/b/African_landscape.jpg'><img style='width:200px; height:200px; margin-bottom: 0px;' src='stim/fixation.png'><img src='stim/b/closeWater_pines_mountains.jpg'>","48","html-keyboard-response","23","16250","0.0-7.0-1.5","practice","ab","1","valid","6","a","win:stay","49","African_landscape.jpg","closeWater_pines_mountains.jpg","African_landscape.jpg","GUID","1123","11/11/2020","12","M","right","-1","1","0","4.949999999999999","not_winner.png","B","points"
"null","<img style='border: 5px solid #ffffff; padding-right:15px;' src='stim/b/African_landscape.jpg'><img style='width:150px; height:150px; padding-right: 50px; padding-left: 50px; margin-bottom: 25px;' src='stim/not_winner.png'><img style='border: 5px solid #808080;'src='stim/b/closeWater_pines_mountains.jpg'>","null","html-keyboard-response","24","17257","0.0-7.0-2.5","","","","","","","","","","","","","","","","","","","","","","","",""
"null","<img style='width:200px; height:200px; margin-left: 95px; margin-right: 95px;' src='stim/fixation.png'>","null","html-keyboard-response","25","18264","0.0-7.0-0.6","","","","","","","","","","","","","","","","","","","","","","","",""
"176.02499999975407","<img src='stim/b/African_landscape.jpg'><img style='width:200px; height:200px; margin-bottom: 0px;' src='stim/fixation.png'><img src='stim/b/closeWater_pines_mountains.jpg'>","48","html-keyboard-response","26","18445","0.0-7.0-1.6","practice","ab","1","valid","6","a","win:stay","49","African_landscape.jpg","closeWater_pines_mountains.jpg","African_landscape.jpg","GUID","1123","11/11/2020","12","M","right","-1","1","0","4.949999999999999","not_winner.png","B","points"
"null","<img style='border: 5px solid #ffffff; padding-right:15px;' src='stim/b/African_landscape.jpg'><img style='width:150px; height:150px; padding-right: 50px; padding-left: 50px; margin-bottom: 25px;' src='stim/not_winner.png'><img style='border: 5px solid #808080;'src='stim/b/closeWater_pines_mountains.jpg'>","null","html-keyboard-response","27","19448","0.0-7.0-2.6","","","","","","","","","","","","","","","","","","","","","","","",""
"null","<img style='width:200px; height:200px; margin-left: 95px; margin-right: 95px;' src='stim/fixation.png'>","null","html-keyboard-response","28","20456","0.0-7.0-0.7","","","","","","","","","","","","","","","","","","","","","","","",""
"110.83999999982188","<img src='stim/b/wheat_with_farmhouse.jpg'><img style='width:200px; height:200px; margin-bottom: 0px;' src='stim/fixation.png'><img src='stim/b/Trees_with_flowers.jpg'>","48","html-keyboard-response","29","20570","0.0-7.0-1.7","practice","ef","1","valid","6","e","avoid:lose","48","wheat_with_farmhouse.jpg","Trees_with_flowers.jpg","Trees_with_flowers.jpg","GUID","1123","11/11/2020","12","M","right","-1","1","1","4.949999999999999","keep_points.png","B","points"
"null","<img style='border: 5px solid #ffffff; padding-right:15px;' src='stim/b/wheat_with_farmhouse.jpg'><img style='width:150px; height:150px; padding-right: 50px; padding-left: 50px; margin-bottom: 25px;' src='stim/keep_points.png'><img style='border: 5px solid #808080;'src='stim/b/Trees_with_flowers.jpg'>","null","html-keyboard-response","30","21577","0.0-7.0-2.7","","","","","","","","","","","","","","","","","","","","","","","",""
"null","<img style='width:200px; height:200px; margin-left: 95px; margin-right: 95px;' src='stim/fixation.png'>","null","html-keyboard-response","31","22583","0.0-7.0-0.8","","","","","","","","","","","","","","","","","","","","","","","",""
"236.93000000003667","<img src='stim/b/Trees_with_flowers.jpg'><img style='width:200px; height:200px; margin-bottom: 0px;' src='stim/fixation.png'><img src='stim/b/wheat_with_farmhouse.jpg'>","48","html-keyboard-response","32","22823","0.0-7.0-1.8","practice","ef","1","valid","6","e","avoid:lose","49","Trees_with_flowers.jpg","wheat_with_farmhouse.jpg","Trees_with_flowers.jpg","GUID","1123","11/11/2020","12","M","right","-1","1","0","-0.10000000000000053","losepoints.bmp","B","points"
"null","<img style='border: 5px solid #ffffff; padding-right:15px;' src='stim/b/Trees_with_flowers.jpg'><img style='width:150px; height:150px; padding-right: 50px; padding-left: 50px; margin-bottom: 25px;' src='stim/losepoints.bmp'><img style='border: 5px solid #808080;'src='stim/b/wheat_with_farmhouse.jpg'>","null","html-keyboard-response","33","23830","0.0-7.0-2.8","","","","","","","","","","","","","","","","","","","","","","","",""
"null","<img style='width:200px; height:200px; margin-left: 95px; margin-right: 95px;' src='stim/fixation.png'>","null","html-keyboard-response","34","24835","0.0-7.0-0.9","","","","","","","","","","","","","","","","","","","","","","","",""
"297.52000000007683","<img src='stim/b/African_landscape.jpg'><img style='width:200px; height:200px; margin-bottom: 0px;' src='stim/fixation.png'><img src='stim/b/closeWater_pines_mountains.jpg'>","48","html-keyboard-response","35","25137","0.0-7.0-1.9","practice","ab","1","valid","6","a","win:stay","49","African_landscape.jpg","closeWater_pines_mountains.jpg","African_landscape.jpg","GUID","1123","11/11/2020","12","M","right","-1","1","0","-0.10000000000000053","not_winner.png","B","points"
"null","<img style='border: 5px solid #ffffff; padding-right:15px;' src='stim/b/African_landscape.jpg'><img style='width:150px; height:150px; padding-right: 50px; padding-left: 50px; margin-bottom: 25px;' src='stim/not_winner.png'><img style='border: 5px solid #808080;'src='stim/b/closeWater_pines_mountains.jpg'>","null","html-keyboard-response","36","26142","0.0-7.0-2.9","","","","","","","","","","","","","","","","","","","","","","","",""
"null","<img style='width:200px; height:200px; margin-left: 95px; margin-right: 95px;' src='stim/fixation.png'>","null","html-keyboard-response","37","27146","0.0-7.0-0.10","","","","","","","","","","","","","","","","","","","","","","","",""
"248.32500000001892","<img src='stim/b/closeWater_pines_mountains.jpg'><img style='width:200px; height:200px; margin-bottom: 0px;' src='stim/fixation.png'><img src='stim/b/African_landscape.jpg'>","48","html-keyboard-response","38","27398","0.0-7.0-1.10","practice","ab","1","valid","6","a","win:stay","48","closeWater_pines_mountains.jpg","African_landscape.jpg","African_landscape.jpg","GUID","1123","11/11/2020","12","M","right","-1","1","1","4.8999999999999995","winpoints.bmp","B","points"
"null","<img style='border: 5px solid #ffffff; padding-right:15px;' src='stim/b/closeWater_pines_mountains.jpg'><img style='width:150px; height:150px; padding-right: 50px; padding-left: 50px; margin-bottom: 25px;' src='stim/winpoints.bmp'><img style='border: 5px solid #808080;'src='stim/b/African_landscape.jpg'>","null","html-keyboard-response","39","28405","0.0-7.0-2.10","","","","","","","","","","","","","","","","","","","","","","","",""
"null","<img style='width:200px; height:200px; margin-left: 95px; margin-right: 95px;' src='stim/fixation.png'>","null","html-keyboard-response","40","29409","0.0-7.0-0.11","","","","","","","","","","","","","","","","","","","","","","","",""
"114.72499999991123","<img src='stim/b/wheat_with_farmhouse.jpg'><img style='width:200px; height:200px; margin-bottom: 0px;' src='stim/fixation.png'><img src='stim/b/Trees_with_flowers.jpg'>","49","html-keyboard-response","41","29528","0.0-7.0-1.11","practice","ef","1","valid","6","e","avoid:lose","48","wheat_with_farmhouse.jpg","Trees_with_flowers.jpg","Trees_with_flowers.jpg","GUID","1123","11/11/2020","12","M","right","-1","1","0","-0.15000000000000036","losepoints.bmp","B","points"
"null","<img style='border: 5px solid #808080;' src='stim/b/wheat_with_farmhouse.jpg'><img style='width:150px; height:150px; padding-right: 50px; padding-left: 50px; margin-bottom: 25px;' src='stim/losepoints.bmp'><img style='border: 5px solid #ffffff;  padding-left:15px;' src='stim/b/Trees_with_flowers.jpg'>","null","html-keyboard-response","42","30536","0.0-7.0-2.11","","","","","","","","","","","","","","","","","","","","","","","",""
"920.250000000131","<p>Great!</p> <p>Press the spacebar to continue.</p>","32","html-keyboard-response","43","31962","0.0-8.0","","","","","","","","","","","","","","","","","","","","","","","",""
"427.4649999997564","<p>Now you will see some more pictures.</p><p>Do as before by pressing the 1 to choose the picture on the left, and pressing the 0 to choose the picture on the right.</p><p>Press the spacebar to continue.</p>","32","html-keyboard-response","44","32391","0.0-9.0","","","","","","","","","","","","","","","","","","","","","","","",""
"204.36999999992986","<h3 style=""color:red;"">For the picture pairs where you can win points:</h3><p>You will not win every time you choose the ""best"" picture;</p><p>However, one picture gets rewarded much more often than the other picture.</p><h3 style=""color:red;"">For the picture pairs where the best you can do is keep your points:</h3><p>You will not be able to keep your points every time you choose the ""best"" picture;</p><p>However, one picture allows you to keep your points much more often than the other picture.</p><p>Press the spacebar to continue.</p>","32","html-keyboard-response","45","32597","0.0-10.0","","","","","","","","","","","","","","","","","","","","","","","",""
"148.70999999993364","<p>There is no ABSOLUTE right answer for any pair of pictures, but some pictures have a higher chance of either winning you some money or preventing you from losing money.</p><p>Try to pick the picture that you think is best.<p><p>Once you decide which picture in a pair of pictures is better, stick with it for the rest of the experiment (unless you determine that you were initially wrong about the selection).</p><p>Press the spacebar when you are ready to begin.</p>","32","html-keyboard-response","46","32747","0.0-11.0","","","","","","","","","","","","","","","","","","","","","","","",""
"null","<img style='width:200px; height:200px; margin-left: 95px; margin-right: 95px;' src='stim/fixation.png'>","null","html-keyboard-response","47","33249","0.0-12.0-0.0","","","","","","","","","","","","","","","","","","","","","","","",""
"380.33999999970547","<img src='stim/b/lsingeltree_tallergrass_clouds.jpg'><img style='width:200px; height:200px; margin-bottom: 0px;' src='stim/fixation.png'><img src='stim/b/orangey_field.jpg'>","48","html-keyboard-response","48","33633","0.0-12.0-1.0","training","cd","0.8","invalid","10","c","win:stay","49","lsingeltree_tallergrass_clouds.jpg","orangey_field.jpg","lsingeltree_tallergrass_clouds.jpg","GUID","1123","11/11/2020","12","M","right","-11","0","0","4.85","winpoints.bmp","B","points"
"null","<img style='border: 5px solid #ffffff; padding-right:15px;' src='stim/b/lsingeltree_tallergrass_clouds.jpg'><img style='width:150px; height:150px; padding-right: 50px; padding-left: 50px; margin-bottom: 25px;' src='stim/winpoints.bmp'><img style='border: 5px solid #808080;'src='stim/b/orangey_field.jpg'>","null","html-keyboard-response","49","34642","0.0-12.0-2.0","","","","","","","","","","","","","","","","","","","","","","","",""
"null","<img style='width:200px; height:200px; margin-left: 95px; margin-right: 95px;' src='stim/fixation.png'>","null","html-keyboard-response","50","35645","0.0-12.0-0.1","","","","","","","","","","","","","","","","","","","","","","","",""
"310.57999999984895","<img src='stim/b/water_pines_distantMountains.jpg'><img style='width:200px; height:200px; margin-bottom: 0px;' src='stim/fixation.png'><img src='stim/b/water_fall_images.jpg'>","49","html-keyboard-response","51","35960","0.0-12.0-1.1","training","ef","0.9","valid","10","e","avoid:lose","48","water_pines_distantMountains.jpg","water_fall_images.jpg","water_fall_images.jpg","GUID","1123","11/11/2020","12","M","right","-10","0","0","-0.20000000000000018","losepoints.bmp","B","points"
"null","<img style='border: 5px solid #808080;' src='stim/b/water_pines_distantMountains.jpg'><img style='width:150px; height:150px; padding-right: 50px; padding-left: 50px; margin-bottom: 25px;' src='stim/losepoints.bmp'><img style='border: 5px solid #ffffff;  padding-left:15px;' src='stim/b/water_fall_images.jpg'>","null","html-keyboard-response","52","36967","0.0-12.0-2.1","","","","","","","","","","","","","","","","","","","","","","","",""
"null","<img style='width:200px; height:200px; margin-left: 95px; margin-right: 95px;' src='stim/fixation.png'>","null","html-keyboard-response","53","37971","0.0-12.0-0.2","","","","","","","","","","","","","","","","","","","","","","","",""
"376.0050000000774","<img src='stim/b/water_pines_snowy_moutain.jpg'><img style='width:200px; height:200px; margin-bottom: 0px;' src='stim/fixation.png'><img src='stim/b/waterfall_waterBelow.jpg'>","48","html-keyboard-response","54","38351","0.0-12.0-1.2","training","gh","0.8","valid","10","g","avoid:lose","49","waterfall_waterBelow.jpg","water_pines_snowy_moutain.jpg","water_pines_snowy_moutain.jpg","GUID","1123","11/11/2020","12","M","right","-9","0","0","-5.25","losepoints.bmp","B","points"
"null","<img style='border: 5px solid #ffffff; padding-right:15px;' src='stim/b/water_pines_snowy_moutain.jpg'><img style='width:150px; height:150px; padding-right: 50px; padding-left: 50px; margin-bottom: 25px;' src='stim/losepoints.bmp'><img style='border: 5px solid #808080;'src='stim/b/waterfall_waterBelow.jpg'>","null","html-keyboard-response","55","39358","0.0-12.0-2.2","","","","","","","","","","","","","","","","","","","","","","","",""
"null","<img style='width:200px; height:200px; margin-left: 95px; margin-right: 95px;' src='stim/fixation.png'>","null","html-keyboard-response","56","40365","0.0-12.0-0.3","","","","","","","","","","","","","","","","","","","","","","","",""
"374.06000000009954","<img src='stim/b/2822landscape.jpg'><img style='width:200px; height:200px; margin-bottom: 0px;' src='stim/fixation.png'><img src='stim/b/3d-landscape-background-10.jpg'>","48","html-keyboard-response","57","40743","0.0-12.0-1.3","training","ab","0.9","valid","10","a","win:stay","48","2822landscape.jpg","3d-landscape-background-10.jpg","3d-landscape-background-10.jpg","GUID","1123","11/11/2020","12","M","right","-8","0","1","-0.25","winpoints.bmp","B","points"
"null","<img style='border: 5px solid #ffffff; padding-right:15px;' src='stim/b/2822landscape.jpg'><img style='width:150px; height:150px; padding-right: 50px; padding-left: 50px; margin-bottom: 25px;' src='stim/winpoints.bmp'><img style='border: 5px solid #808080;'src='stim/b/3d-landscape-background-10.jpg'>","null","html-keyboard-response","58","41749","0.0-12.0-2.3","","","","","","","","","","","","","","","","","","","","","","","",""
"null","<img style='width:200px; height:200px; margin-left: 95px; margin-right: 95px;' src='stim/fixation.png'>","null","html-keyboard-response","59","42756","0.0-12.0-0.4","","","","","","","","","","","","","","","","","","","","","","","",""
"120.26999999990221","<img src='stim/b/orangey_field.jpg'><img style='width:200px; height:200px; margin-bottom: 0px;' src='stim/fixation.png'><img src='stim/b/lsingeltree_tallergrass_clouds.jpg'>","49","html-keyboard-response","60","42881","0.0-12.0-1.4","training","cd","0.8","invalid","10","c","win:stay","48","orangey_field.jpg","lsingeltree_tallergrass_clouds.jpg","lsingeltree_tallergrass_clouds.jpg","GUID","1123","11/11/2020","12","M","right","-7","0","0","4.75","winpoints.bmp","B","points"
"null","<img style='border: 5px solid #808080;' src='stim/b/orangey_field.jpg'><img style='width:150px; height:150px; padding-right: 50px; padding-left: 50px; margin-bottom: 25px;' src='stim/winpoints.bmp'><img style='border: 5px solid #ffffff;  padding-left:15px;' src='stim/b/lsingeltree_tallergrass_clouds.jpg'>","null","html-keyboard-response","61","43885","0.0-12.0-2.4","","","","","","","","","","","","","","","","","","","","","","","",""
"null","<img style='width:200px; height:200px; margin-left: 95px; margin-right: 95px;' src='stim/fixation.png'>","null","html-keyboard-response","62","44891","0.0-12.0-0.5","","","","","","","","","","","","","","","","","","","","","","","",""
"259.9199999999546","<img src='stim/b/water_pines_snowy_moutain.jpg'><img style='width:200px; height:200px; margin-bottom: 0px;' src='stim/fixation.png'><img src='stim/b/waterfall_waterBelow.jpg'>","48","html-keyboard-response","63","45154","0.0-12.0-1.5","training","gh","0.8","valid","10","g","avoid:lose","49","waterfall_waterBelow.jpg","water_pines_snowy_moutain.jpg","water_pines_snowy_moutain.jpg","GUID","1123","11/11/2020","12","M","right","-6","0","0","-0.2999999999999998","losepoints.bmp","B","points"
"null","<img style='border: 5px solid #ffffff; padding-right:15px;' src='stim/b/water_pines_snowy_moutain.jpg'><img style='width:150px; height:150px; padding-right: 50px; padding-left: 50px; margin-bottom: 25px;' src='stim/losepoints.bmp'><img style='border: 5px solid #808080;'src='stim/b/waterfall_waterBelow.jpg'>","null","html-keyboard-response","64","46160","0.0-12.0-2.5","","","","","","","","","","","","","","","","","","","","","","","",""
"null","<img style='width:200px; height:200px; margin-left: 95px; margin-right: 95px;' src='stim/fixation.png'>","null","html-keyboard-response","65","47166","0.0-12.0-0.6","","","","","","","","","","","","","","","","","","","","","","","",""
"77319.33500000015","<img src='stim/b/3d-landscape-background-10.jpg'><img style='width:200px; height:200px; margin-bottom: 0px;' src='stim/fixation.png'><img src='stim/b/2822landscape.jpg'>","48","html-keyboard-response","66","124491","0.0-12.0-1.6","training","ab","0.9","valid","10","a","win:stay","49","3d-landscape-background-10.jpg","2822landscape.jpg","3d-landscape-background-10.jpg","GUID","1123","11/11/2020","12","M","right","-5","0","0","-0.2999999999999998","not_winner.png","B","points"
"null","<img style='border: 5px solid #ffffff; padding-right:15px;' src='stim/b/3d-landscape-background-10.jpg'><img style='width:150px; height:150px; padding-right: 50px; padding-left: 50px; margin-bottom: 25px;' src='stim/not_winner.png'><img style='border: 5px solid #808080;'src='stim/b/2822landscape.jpg'>","null","html-keyboard-response","67","125496","0.0-12.0-2.6","","","","","","","","","","","","","","","","","","","","","","","",""
"null","<img style='width:200px; height:200px; margin-left: 95px; margin-right: 95px;' src='stim/fixation.png'>","null","html-keyboard-response","68","126499","0.0-12.0-0.7","","","","","","","","","","","","","","","","","","","","","","","",""
"259.79000000006636","<img src='stim/b/water_pines_distantMountains.jpg'><img style='width:200px; height:200px; margin-bottom: 0px;' src='stim/fixation.png'><img src='stim/b/water_fall_images.jpg'>","48","html-keyboard-response","69","126766","0.0-12.0-1.7","training","ef","0.9","valid","10","e","avoid:lose","48","water_pines_distantMountains.jpg","water_fall_images.jpg","water_fall_images.jpg","GUID","1123","11/11/2020","12","M","right","-4","0","1","-0.2999999999999998","keep_points.png","B","points"
"null","<img style='border: 5px solid #ffffff; padding-right:15px;' src='stim/b/water_pines_distantMountains.jpg'><img style='width:150px; height:150px; padding-right: 50px; padding-left: 50px; margin-bottom: 25px;' src='stim/keep_points.png'><img style='border: 5px solid #808080;'src='stim/b/water_fall_images.jpg'>","null","html-keyboard-response","70","127771","0.0-12.0-2.7","","","","","","","","","","","","","","","","","","","","","","","",""
"null","<img style='width:200px; height:200px; margin-left: 95px; margin-right: 95px;' src='stim/fixation.png'>","null","html-keyboard-response","71","128774","0.0-12.0-0.8","","","","","","","","","","","","","","","","","","","","","","","",""
"7234.660000000062","<img src='stim/b/water_fall_images.jpg'><img style='width:200px; height:200px; margin-bottom: 0px;' src='stim/fixation.png'><img src='stim/b/water_pines_distantMountains.jpg'>","49","html-keyboard-response","72","136013","0.0-12.0-1.8","training","ef","0.9","valid","10","e","avoid:lose","49","water_fall_images.jpg","water_pines_distantMountains.jpg","water_fall_images.jpg","GUID","1123","11/11/2020","12","M","right","-3","0","1","-0.2999999999999998","keep_points.png","B","points"
"null","<img style='border: 5px solid #808080;' src='stim/b/water_fall_images.jpg'><img style='width:150px; height:150px; padding-right: 50px; padding-left: 50px; margin-bottom: 25px;' src='stim/keep_points.png'><img style='border: 5px solid #ffffff;  padding-left:15px;' src='stim/b/water_pines_distantMountains.jpg'>","null","html-keyboard-response","73","137016","0.0-12.0-2.8","","","","","","","","","","","","","","","","","","","","","","","",""
"null","<img style='width:200px; height:200px; margin-left: 95px; margin-right: 95px;' src='stim/fixation.png'>","null","html-keyboard-response","74","138022","0.0-12.0-0.9","","","","","","","","","","","","","","","","","","","","","","","",""
"241.0350000000035","<img src='stim/b/waterfall_waterBelow.jpg'><img style='width:200px; height:200px; margin-bottom: 0px;' src='stim/fixation.png'><img src='stim/b/water_pines_snowy_moutain.jpg'>","49","html-keyboard-response","75","138268","0.0-12.0-1.9","training","gh","0.8","valid","10","g","avoid:lose","48","waterfall_waterBelow.jpg","water_pines_snowy_moutain.jpg","water_pines_snowy_moutain.jpg","GUID","1123","11/11/2020","12","M","right","-2","0","0","-5.35","losepoints.bmp","B","points"
"null","<img style='border: 5px solid #808080;' src='stim/b/waterfall_waterBelow.jpg'><img style='width:150px; height:150px; padding-right: 50px; padding-left: 50px; margin-bottom: 25px;' src='stim/losepoints.bmp'><img style='border: 5px solid #ffffff;  padding-left:15px;' src='stim/b/water_pines_snowy_moutain.jpg'>","null","html-keyboard-response","76","139276","0.0-12.0-2.9","","","","","","","","","","","","","","","","","","","","","","","",""
"null","<img style='width:200px; height:200px; margin-left: 95px; margin-right: 95px;' src='stim/fixation.png'>","null","html-keyboard-response","77","140281","0.0-12.0-0.10","","","","","","","","","","","","","","","","","","","","","","","",""
"271.55500000025495","<img src='stim/b/orangey_field.jpg'><img style='width:200px; height:200px; margin-bottom: 0px;' src='stim/fixation.png'><img src='stim/b/lsingeltree_tallergrass_clouds.jpg'>","49","html-keyboard-response","78","140557","0.0-12.0-1.10","training","cd","0.8","valid","10","c","win:stay","48","orangey_field.jpg","lsingeltree_tallergrass_clouds.jpg","lsingeltree_tallergrass_clouds.jpg","GUID","1123","11/11/2020","12","M","right","-1","0","0","-5.35","not_winner.png","B","points"
"null","<img style='border: 5px solid #808080;' src='stim/b/orangey_field.jpg'><img style='width:150px; height:150px; padding-right: 50px; padding-left: 50px; margin-bottom: 25px;' src='stim/not_winner.png'><img style='border: 5px solid #ffffff;  padding-left:15px;' src='stim/b/lsingeltree_tallergrass_clouds.jpg'>","null","html-keyboard-response","79","141563","0.0-12.0-2.10","","","","","","","","","","","","","","","","","","","","","","","",""
"null","<img style='width:200px; height:200px; margin-left: 95px; margin-right: 95px;' src='stim/fixation.png'>","null","html-keyboard-response","80","142566","0.0-12.0-0.11","","","","","","","","","","","","","","","","","","","","","","","",""
"127.78000000026077","<img src='stim/b/3d-landscape-background-10.jpg'><img style='width:200px; height:200px; margin-bottom: 0px;' src='stim/fixation.png'><img src='stim/b/2822landscape.jpg'>","49","html-keyboard-response","81","142699","0.0-12.0-1.11","training","ab","0.9","valid","10","a","win:stay","49","3d-landscape-background-10.jpg","2822landscape.jpg","3d-landscape-background-10.jpg","GUID","1123","11/11/2020","12","M","right","0","0","1","-0.34999999999999964","winpoints.bmp","B","points"
"null","<img style='border: 5px solid #808080;' src='stim/b/3d-landscape-background-10.jpg'><img style='width:150px; height:150px; padding-right: 50px; padding-left: 50px; margin-bottom: 25px;' src='stim/winpoints.bmp'><img style='border: 5px solid #ffffff;  padding-left:15px;' src='stim/b/2822landscape.jpg'>","null","html-keyboard-response","82","143707","0.0-12.0-2.11","","","","","","","","","","","","","","","","","","","","","","","",""
"null","<img style='width:200px; height:200px; margin-left: 95px; margin-right: 95px;' src='stim/fixation.png'>","null","html-keyboard-response","83","144712","0.0-12.0-0.12","","","","","","","","","","","","","","","","","","","","","","","",""
"73312.68999999974","<img src='stim/b/waterfall_waterBelow.jpg'><img style='width:200px; height:200px; margin-bottom: 0px;' src='stim/fixation.png'><img src='stim/b/water_pines_snowy_moutain.jpg'>","48","html-keyboard-response","84","218004","0.0-12.0-1.12","training","gh","0.8","invalid","10","g","avoid:lose","48","waterfall_waterBelow.jpg","water_pines_snowy_moutain.jpg","water_pines_snowy_moutain.jpg","GUID","1123","11/11/2020","12","M","right","1","0","1","-5.35","losepoints.bmp","B","points"
"null","<img style='border: 5px solid #ffffff; padding-right:15px;' src='stim/b/waterfall_waterBelow.jpg'><img style='width:150px; height:150px; padding-right: 50px; padding-left: 50px; margin-bottom: 25px;' src='stim/losepoints.bmp'><img style='border: 5px solid #808080;'src='stim/b/water_pines_snowy_moutain.jpg'>","null","html-keyboard-response","85","219009","0.0-12.0-2.12","","","","","","","","","","","","","","","","","","","","","","","",""
"null","<img style='width:200px; height:200px; margin-left: 95px; margin-right: 95px;' src='stim/fixation.png'>","null","html-keyboard-response","86","220014","0.0-12.0-0.13","","","","","","","","","","","","","","","","","","","","","","","",""
"10643.88999999984","<img src='stim/b/water_pines_distantMountains.jpg'><img style='width:200px; height:200px; margin-bottom: 0px;' src='stim/fixation.png'><img src='stim/b/water_fall_images.jpg'>","48","html-keyboard-response","87","230664","0.0-12.0-1.13","training","ef","0.9","invalid","10","e","avoid:lose","48","water_pines_distantMountains.jpg","water_fall_images.jpg","water_fall_images.jpg","GUID","1123","11/11/2020","12","M","right","2","0","1","-10.35","losepoints.bmp","B","points"
"null","<img style='border: 5px solid #ffffff; padding-right:15px;' src='stim/b/water_pines_distantMountains.jpg'><img style='width:150px; height:150px; padding-right: 50px; padding-left: 50px; margin-bottom: 25px;' src='stim/losepoints.bmp'><img style='border: 5px solid #808080;'src='stim/b/water_fall_images.jpg'>","null","html-keyboard-response","88","231668","0.0-12.0-2.13","","","","","","","","","","","","","","","","","","","","","","","",""
"null","<img style='width:200px; height:200px; margin-left: 95px; margin-right: 95px;' src='stim/fixation.png'>","null","html-keyboard-response","89","232672","0.0-12.0-0.14","","","","","","","","","","","","","","","","","","","","","","","",""
"645.4850000000151","<img src='stim/b/orangey_field.jpg'><img style='width:200px; height:200px; margin-bottom: 0px;' src='stim/fixation.png'><img src='stim/b/lsingeltree_tallergrass_clouds.jpg'>","48","html-keyboard-response","90","233323","0.0-12.0-1.14","training","cd","0.8","valid","10","c","win:stay","48","orangey_field.jpg","lsingeltree_tallergrass_clouds.jpg","lsingeltree_tallergrass_clouds.jpg","GUID","1123","11/11/2020","12","M","right","3","0","1","-5.35","winpoints.bmp","B","points"
"null","<img style='border: 5px solid #ffffff; padding-right:15px;' src='stim/b/orangey_field.jpg'><img style='width:150px; height:150px; padding-right: 50px; padding-left: 50px; margin-bottom: 25px;' src='stim/winpoints.bmp'><img style='border: 5px solid #808080;'src='stim/b/lsingeltree_tallergrass_clouds.jpg'>","null","html-keyboard-response","91","234331","0.0-12.0-2.14","","","","","","","","","","","","","","","","","","","","","","","",""
"null","<img style='width:200px; height:200px; margin-left: 95px; margin-right: 95px;' src='stim/fixation.png'>","null","html-keyboard-response","92","235338","0.0-12.0-0.15","","","","","","","","","","","","","","","","","","","","","","","",""
"388.53499999959604","<img src='stim/b/2822landscape.jpg'><img style='width:200px; height:200px; margin-bottom: 0px;' src='stim/fixation.png'><img src='stim/b/3d-landscape-background-10.jpg'>","48","html-keyboard-response","93","235731","0.0-12.0-1.15","training","ab","0.9","valid","10","a","win:stay","48","2822landscape.jpg","3d-landscape-background-10.jpg","3d-landscape-background-10.jpg","GUID","1123","11/11/2020","12","M","right","4","0","1","-0.34999999999999964","winpoints.bmp","B","points"
"null","<img style='border: 5px solid #ffffff; padding-right:15px;' src='stim/b/2822landscape.jpg'><img style='width:150px; height:150px; padding-right: 50px; padding-left: 50px; margin-bottom: 25px;' src='stim/winpoints.bmp'><img style='border: 5px solid #808080;'src='stim/b/3d-landscape-background-10.jpg'>","null","html-keyboard-response","94","236740","0.0-12.0-2.15","","","","","","","","","","","","","","","","","","","","","","","",""
"null","<img style='width:200px; height:200px; margin-left: 95px; margin-right: 95px;' src='stim/fixation.png'>","null","html-keyboard-response","95","237746","0.0-12.0-0.16","","","","","","","","","","","","","","","","","","","","","","","",""
"378.7400000001071","<img src='stim/b/2822landscape.jpg'><img style='width:200px; height:200px; margin-bottom: 0px;' src='stim/fixation.png'><img src='stim/b/3d-landscape-background-10.jpg'>","48","html-keyboard-response","96","238129","0.0-12.0-1.16","training","ab","0.9","valid","10","a","win:stay","48","2822landscape.jpg","3d-landscape-background-10.jpg","3d-landscape-background-10.jpg","GUID","1123","11/11/2020","12","M","right","5","0","1","4.65","winpoints.bmp","B","points"
"null","<img style='border: 5px solid #ffffff; padding-right:15px;' src='stim/b/2822landscape.jpg'><img style='width:150px; height:150px; padding-right: 50px; padding-left: 50px; margin-bottom: 25px;' src='stim/winpoints.bmp'><img style='border: 5px solid #808080;'src='stim/b/3d-landscape-background-10.jpg'>","null","html-keyboard-response","97","239138","0.0-12.0-2.16","","","","","","","","","","","","","","","","","","","","","","","",""
"null","<img style='width:200px; height:200px; margin-left: 95px; margin-right: 95px;' src='stim/fixation.png'>","null","html-keyboard-response","98","240146","0.0-12.0-0.17","","","","","","","","","","","","","","","","","","","","","","","",""
"397.67000000027474","<img src='stim/b/lsingeltree_tallergrass_clouds.jpg'><img style='width:200px; height:200px; margin-bottom: 0px;' src='stim/fixation.png'><img src='stim/b/orangey_field.jpg'>","48","html-keyboard-response","99","240548","0.0-12.0-1.17","training","cd","0.8","valid","10","c","win:stay","49","lsingeltree_tallergrass_clouds.jpg","orangey_field.jpg","lsingeltree_tallergrass_clouds.jpg","GUID","1123","11/11/2020","12","M","right","6","0","0","4.65","not_winner.png","B","points"
"null","<img style='border: 5px solid #ffffff; padding-right:15px;' src='stim/b/lsingeltree_tallergrass_clouds.jpg'><img style='width:150px; height:150px; padding-right: 50px; padding-left: 50px; margin-bottom: 25px;' src='stim/not_winner.png'><img style='border: 5px solid #808080;'src='stim/b/orangey_field.jpg'>","null","html-keyboard-response","100","241550","0.0-12.0-2.17","","","","","","","","","","","","","","","","","","","","","","","",""
"null","<img style='width:200px; height:200px; margin-left: 95px; margin-right: 95px;' src='stim/fixation.png'>","null","html-keyboard-response","101","242556","0.0-12.0-0.18","","","","","","","","","","","","","","","","","","","","","","","",""
"2422.9950000003446","<img src='stim/b/water_pines_snowy_moutain.jpg'><img style='width:200px; height:200px; margin-bottom: 0px;' src='stim/fixation.png'><img src='stim/b/waterfall_waterBelow.jpg'>","48","html-keyboard-response","102","244983","0.0-12.0-1.18","training","gh","0.8","valid","10","g","avoid:lose","49","waterfall_waterBelow.jpg","water_pines_snowy_moutain.jpg","water_pines_snowy_moutain.jpg","GUID","1123","11/11/2020","12","M","right","7","0","0","-0.39999999999999947","losepoints.bmp","B","points"
"null","<img style='border: 5px solid #ffffff; padding-right:15px;' src='stim/b/water_pines_snowy_moutain.jpg'><img style='width:150px; height:150px; padding-right: 50px; padding-left: 50px; margin-bottom: 25px;' src='stim/losepoints.bmp'><img style='border: 5px solid #808080;'src='stim/b/waterfall_waterBelow.jpg'>","null","html-keyboard-response","103","245988","0.0-12.0-2.18","","","","","","","","","","","","","","","","","","","","","","","",""
"null","<img style='width:200px; height:200px; margin-left: 95px; margin-right: 95px;' src='stim/fixation.png'>","null","html-keyboard-response","104","246993","0.0-12.0-0.19","","","","","","","","","","","","","","","","","","","","","","","",""
"1260.1599999997998","<img src='stim/b/water_fall_images.jpg'><img style='width:200px; height:200px; margin-bottom: 0px;' src='stim/fixation.png'><img src='stim/b/water_pines_distantMountains.jpg'>","48","html-keyboard-response","105","248259","0.0-12.0-1.19","training","ef","0.9","valid","10","e","avoid:lose","49","water_fall_images.jpg","water_pines_distantMountains.jpg","water_fall_images.jpg","GUID","1123","11/11/2020","12","M","right","8","0","0","-5.449999999999999","losepoints.bmp","B","points"
"null","<img style='border: 5px solid #ffffff; padding-right:15px;' src='stim/b/water_fall_images.jpg'><img style='width:150px; height:150px; padding-right: 50px; padding-left: 50px; margin-bottom: 25px;' src='stim/losepoints.bmp'><img style='border: 5px solid #808080;'src='stim/b/water_pines_distantMountains.jpg'>","null","html-keyboard-response","106","249263","0.0-12.0-2.19","","","","","","","","","","","","","","","","","","","","","","","",""
"null","<img style='width:200px; height:200px; margin-left: 95px; margin-right: 95px;' src='stim/fixation.png'>","null","html-keyboard-response","107","250270","0.0-12.0-0.20","","","","","","","","","","","","","","","","","","","","","","","",""
"1528.335000000021","<img src='stim/b/water_pines_distantMountains.jpg'><img style='width:200px; height:200px; margin-bottom: 0px;' src='stim/fixation.png'><img src='stim/b/water_fall_images.jpg'>","48","html-keyboard-response","108","251804","0.0-12.0-1.20","training","ef","0.9","valid","10","e","avoid:lose","48","water_pines_distantMountains.jpg","water_fall_images.jpg","water_fall_images.jpg","GUID","1123","11/11/2020","12","M","right","9","0","1","-5.449999999999999","keep_points.png","B","points"
"null","<img style='border: 5px solid #ffffff; padding-right:15px;' src='stim/b/water_pines_distantMountains.jpg'><img style='width:150px; height:150px; padding-right: 50px; padding-left: 50px; margin-bottom: 25px;' src='stim/keep_points.png'><img style='border: 5px solid #808080;'src='stim/b/water_fall_images.jpg'>","null","html-keyboard-response","109","252809","0.0-12.0-2.20","","","","","","","","","","","","","","","","","","","","","","","",""
"null","<img style='width:200px; height:200px; margin-left: 95px; margin-right: 95px;' src='stim/fixation.png'>","null","html-keyboard-response","110","253817","0.0-12.0-0.21","","","","","","","","","","","","","","","","","","","","","","","",""
"539.6749999999884","<img src='stim/b/waterfall_waterBelow.jpg'><img style='width:200px; height:200px; margin-bottom: 0px;' src='stim/fixation.png'><img src='stim/b/water_pines_snowy_moutain.jpg'>","48","html-keyboard-response","111","254361","0.0-12.0-1.21","training","gh","0.8","valid","10","g","avoid:lose","48","waterfall_waterBelow.jpg","water_pines_snowy_moutain.jpg","water_pines_snowy_moutain.jpg","GUID","1123","11/11/2020","12","M","right","10","0","1","-5.449999999999999","keep_points.png","B","points"
"null","<img style='border: 5px solid #ffffff; padding-right:15px;' src='stim/b/waterfall_waterBelow.jpg'><img style='width:150px; height:150px; padding-right: 50px; padding-left: 50px; margin-bottom: 25px;' src='stim/keep_points.png'><img style='border: 5px solid #808080;'src='stim/b/water_pines_snowy_moutain.jpg'>","null","html-keyboard-response","112","255366","0.0-12.0-2.21","","","","","","","","","","","","","","","","","","","","","","","",""
"null","<img style='width:200px; height:200px; margin-left: 95px; margin-right: 95px;' src='stim/fixation.png'>","null","html-keyboard-response","113","256373","0.0-12.0-0.22","","","","","","","","","","","","","","","","","","","","","","","",""
"405.98999999975786","<img src='stim/b/2822landscape.jpg'><img style='width:200px; height:200px; margin-bottom: 0px;' src='stim/fixation.png'><img src='stim/b/3d-landscape-background-10.jpg'>","48","html-keyboard-response","114","256784","0.0-12.0-1.22","training","ab","0.9","valid","10","a","win:stay","48","2822landscape.jpg","3d-landscape-background-10.jpg","3d-landscape-background-10.jpg","GUID","1123","11/11/2020","12","M","right","11","0","1","-0.4499999999999993","winpoints.bmp","B","points"
"null","<img style='border: 5px solid #ffffff; padding-right:15px;' src='stim/b/2822landscape.jpg'><img style='width:150px; height:150px; padding-right: 50px; padding-left: 50px; margin-bottom: 25px;' src='stim/winpoints.bmp'><img style='border: 5px solid #808080;'src='stim/b/3d-landscape-background-10.jpg'>","null","html-keyboard-response","115","257792","0.0-12.0-2.22","","","","","","","","","","","","","","","","","","","","","","","",""
"null","<img style='width:200px; height:200px; margin-left: 95px; margin-right: 95px;' src='stim/fixation.png'>","null","html-keyboard-response","116","258799","0.0-12.0-0.23","","","","","","","","","","","","","","","","","","","","","","","",""
"344.0950000003795","<img src='stim/b/lsingeltree_tallergrass_clouds.jpg'><img style='width:200px; height:200px; margin-bottom: 0px;' src='stim/fixation.png'><img src='stim/b/orangey_field.jpg'>","48","html-keyboard-response","117","259150","0.0-12.0-1.23","training","cd","0.8","valid","10","c","win:stay","49","lsingeltree_tallergrass_clouds.jpg","orangey_field.jpg","lsingeltree_tallergrass_clouds.jpg","GUID","1123","11/11/2020","12","M","right","12","0","0","-0.4499999999999993","not_winner.png","B","points"
"null","<img style='border: 5px solid #ffffff; padding-right:15px;' src='stim/b/lsingeltree_tallergrass_clouds.jpg'><img style='width:150px; height:150px; padding-right: 50px; padding-left: 50px; margin-bottom: 25px;' src='stim/not_winner.png'><img style='border: 5px solid #808080;'src='stim/b/orangey_field.jpg'>","null","html-keyboard-response","118","260152","0.0-12.0-2.23","","","","","","","","","","","","","","","","","","","","","","","",""
"null","<img style='width:200px; height:200px; margin-left: 95px; margin-right: 95px;' src='stim/fixation.png'>","null","html-keyboard-response","119","261156","0.0-12.0-0.24","","","","","","","","","","","","","","","","","","","","","","","",""
"4052.090000000142","<img src='stim/b/3d-landscape-background-10.jpg'><img style='width:200px; height:200px; margin-bottom: 0px;' src='stim/fixation.png'><img src='stim/b/2822landscape.jpg'>","48","html-keyboard-response","120","265213","0.0-12.0-1.24","training","ab","0.9","invalid","10","a","win:stay","49","3d-landscape-background-10.jpg","2822landscape.jpg","3d-landscape-background-10.jpg","GUID","1123","11/11/2020","12","M","right","13","0","0","4.550000000000001","winpoints.bmp","B","points"
"null","<img style='border: 5px solid #ffffff; padding-right:15px;' src='stim/b/3d-landscape-background-10.jpg'><img style='width:150px; height:150px; padding-right: 50px; padding-left: 50px; margin-bottom: 25px;' src='stim/winpoints.bmp'><img style='border: 5px solid #808080;'src='stim/b/2822landscape.jpg'>","null","html-keyboard-response","121","266219","0.0-12.0-2.24","","","","","","","","","","","","","","","","","","","","","","","",""
"null","<img style='width:200px; height:200px; margin-left: 95px; margin-right: 95px;' src='stim/fixation.png'>","null","html-keyboard-response","122","267224","0.0-12.0-0.25","","","","","","","","","","","","","","","","","","","","","","","",""
"399.86500000033993","<img src='stim/b/water_pines_snowy_moutain.jpg'><img style='width:200px; height:200px; margin-bottom: 0px;' src='stim/fixation.png'><img src='stim/b/waterfall_waterBelow.jpg'>","48","html-keyboard-response","123","267628","0.0-12.0-1.25","training","gh","0.8","valid","10","g","avoid:lose","49","waterfall_waterBelow.jpg","water_pines_snowy_moutain.jpg","water_pines_snowy_moutain.jpg","GUID","1123","11/11/2020","12","M","right","14","0","0","-0.4999999999999991","losepoints.bmp","B","points"
"null","<img style='border: 5px solid #ffffff; padding-right:15px;' src='stim/b/water_pines_snowy_moutain.jpg'><img style='width:150px; height:150px; padding-right: 50px; padding-left: 50px; margin-bottom: 25px;' src='stim/losepoints.bmp'><img style='border: 5px solid #808080;'src='stim/b/waterfall_waterBelow.jpg'>","null","html-keyboard-response","124","268632","0.0-12.0-2.25","","","","","","","","","","","","","","","","","","","","","","","",""
"null","<img style='width:200px; height:200px; margin-left: 95px; margin-right: 95px;' src='stim/fixation.png'>","null","html-keyboard-response","125","269634","0.0-12.0-0.26","","","","","","","","","","","","","","","","","","","","","","","",""
"442.1749999996973","<img src='stim/b/orangey_field.jpg'><img style='width:200px; height:200px; margin-bottom: 0px;' src='stim/fixation.png'><img src='stim/b/lsingeltree_tallergrass_clouds.jpg'>","48","html-keyboard-response","126","270081","0.0-12.0-1.26","training","cd","0.8","valid","10","c","win:stay","48","orangey_field.jpg","lsingeltree_tallergrass_clouds.jpg","lsingeltree_tallergrass_clouds.jpg","GUID","1123","11/11/2020","12","M","right","15","0","1","4.500000000000001","winpoints.bmp","B","points"
"null","<img style='border: 5px solid #ffffff; padding-right:15px;' src='stim/b/orangey_field.jpg'><img style='width:150px; height:150px; padding-right: 50px; padding-left: 50px; margin-bottom: 25px;' src='stim/winpoints.bmp'><img style='border: 5px solid #808080;'src='stim/b/lsingeltree_tallergrass_clouds.jpg'>","null","html-keyboard-response","127","271090","0.0-12.0-2.26","","","","","","","","","","","","","","","","","","","","","","","",""
"null","<img style='width:200px; height:200px; margin-left: 95px; margin-right: 95px;' src='stim/fixation.png'>","null","html-keyboard-response","128","272098","0.0-12.0-0.27","","","","","","","","","","","","","","","","","","","","","","","",""
"1961.0500000003376","<img src='stim/b/water_fall_images.jpg'><img style='width:200px; height:200px; margin-bottom: 0px;' src='stim/fixation.png'><img src='stim/b/water_pines_distantMountains.jpg'>","48","html-keyboard-response","129","274064","0.0-12.0-1.27","training","ef","0.9","valid","10","e","avoid:lose","49","water_fall_images.jpg","water_pines_distantMountains.jpg","water_fall_images.jpg","GUID","1123","11/11/2020","12","M","right","16","0","0","-0.5499999999999989","losepoints.bmp","B","points"
"null","<img style='border: 5px solid #ffffff; padding-right:15px;' src='stim/b/water_fall_images.jpg'><img style='width:150px; height:150px; padding-right: 50px; padding-left: 50px; margin-bottom: 25px;' src='stim/losepoints.bmp'><img style='border: 5px solid #808080;'src='stim/b/water_pines_distantMountains.jpg'>","null","html-keyboard-response","130","275069","0.0-12.0-2.27","","","","","","","","","","","","","","","","","","","","","","","",""
"null","<img style='width:200px; height:200px; margin-left: 95px; margin-right: 95px;' src='stim/fixation.png'>","null","html-keyboard-response","131","276076","0.0-12.0-0.28","","","","","","","","","","","","","","","","","","","","","","","",""
"1586.6249999999418","<img src='stim/b/orangey_field.jpg'><img style='width:200px; height:200px; margin-bottom: 0px;' src='stim/fixation.png'><img src='stim/b/lsingeltree_tallergrass_clouds.jpg'>","48","html-keyboard-response","132","277668","0.0-12.0-1.28","training","cd","0.8","valid","10","c","win:stay","48","orangey_field.jpg","lsingeltree_tallergrass_clouds.jpg","lsingeltree_tallergrass_clouds.jpg","GUID","1123","11/11/2020","12","M","right","17","0","1","4.450000000000001","winpoints.bmp","B","points"
"null","<img style='border: 5px solid #ffffff; padding-right:15px;' src='stim/b/orangey_field.jpg'><img style='width:150px; height:150px; padding-right: 50px; padding-left: 50px; margin-bottom: 25px;' src='stim/winpoints.bmp'><img style='border: 5px solid #808080;'src='stim/b/lsingeltree_tallergrass_clouds.jpg'>","null","html-keyboard-response","133","278673","0.0-12.0-2.28","","","","","","","","","","","","","","","","","","","","","","","",""
"null","<img style='width:200px; height:200px; margin-left: 95px; margin-right: 95px;' src='stim/fixation.png'>","null","html-keyboard-response","134","279680","0.0-12.0-0.29","","","","","","","","","","","","","","","","","","","","","","","",""
"3134.8549999997485","<img src='stim/b/water_pines_distantMountains.jpg'><img style='width:200px; height:200px; margin-bottom: 0px;' src='stim/fixation.png'><img src='stim/b/water_fall_images.jpg'>","48","html-keyboard-response","135","282820","0.0-12.0-1.29","training","ef","0.9","valid","10","e","avoid:lose","48","water_pines_distantMountains.jpg","water_fall_images.jpg","water_fall_images.jpg","GUID","1123","11/11/2020","12","M","right","18","0","1","4.450000000000001","keep_points.png","B","points"
"null","<img style='border: 5px solid #ffffff; padding-right:15px;' src='stim/b/water_pines_distantMountains.jpg'><img style='width:150px; height:150px; padding-right: 50px; padding-left: 50px; margin-bottom: 25px;' src='stim/keep_points.png'><img style='border: 5px solid #808080;'src='stim/b/water_fall_images.jpg'>","null","html-keyboard-response","136","283826","0.0-12.0-2.29","","","","","","","","","","","","","","","","","","","","","","","",""
"null","<img style='width:200px; height:200px; margin-left: 95px; margin-right: 95px;' src='stim/fixation.png'>","null","html-keyboard-response","137","284833","0.0-12.0-0.30","","","","","","","","","","","","","","","","","","","","","","","",""
"929.4500000001281","<img src='stim/b/waterfall_waterBelow.jpg'><img style='width:200px; height:200px; margin-bottom: 0px;' src='stim/fixation.png'><img src='stim/b/water_pines_snowy_moutain.jpg'>","48","html-keyboard-response","138","285768","0.0-12.0-1.30","training","gh","0.8","valid","10","g","avoid:lose","48","waterfall_waterBelow.jpg","water_pines_snowy_moutain.jpg","water_pines_snowy_moutain.jpg","GUID","1123","11/11/2020","12","M","right","19","0","1","4.450000000000001","keep_points.png","B","points"
"null","<img style='border: 5px solid #ffffff; padding-right:15px;' src='stim/b/waterfall_waterBelow.jpg'><img style='width:150px; height:150px; padding-right: 50px; padding-left: 50px; margin-bottom: 25px;' src='stim/keep_points.png'><img style='border: 5px solid #808080;'src='stim/b/water_pines_snowy_moutain.jpg'>","null","html-keyboard-response","139","286772","0.0-12.0-2.30","","","","","","","","","","","","","","","","","","","","","","","",""
"null","<img style='width:200px; height:200px; margin-left: 95px; margin-right: 95px;' src='stim/fixation.png'>","null","html-keyboard-response","140","287779","0.0-12.0-0.31","","","","","","","","","","","","","","","","","","","","","","","",""
"415.7100000001956","<img src='stim/b/2822landscape.jpg'><img style='width:200px; height:200px; margin-bottom: 0px;' src='stim/fixation.png'><img src='stim/b/3d-landscape-background-10.jpg'>","48","html-keyboard-response","141","288199","0.0-12.0-1.31","training","ab","0.9","valid","10","a","win:stay","48","2822landscape.jpg","3d-landscape-background-10.jpg","3d-landscape-background-10.jpg","GUID","1123","11/11/2020","12","M","right","20","0","1","9.450000000000001","winpoints.bmp","B","points"
"null","<img style='border: 5px solid #ffffff; padding-right:15px;' src='stim/b/2822landscape.jpg'><img style='width:150px; height:150px; padding-right: 50px; padding-left: 50px; margin-bottom: 25px;' src='stim/winpoints.bmp'><img style='border: 5px solid #808080;'src='stim/b/3d-landscape-background-10.jpg'>","null","html-keyboard-response","142","289208","0.0-12.0-2.31","","","","","","","","","","","","","","","","","","","","","","","",""
"null","<img style='width:200px; height:200px; margin-left: 95px; margin-right: 95px;' src='stim/fixation.png'>","null","html-keyboard-response","143","290213","0.0-12.0-0.32","","","","","","","","","","","","","","","","","","","","","","","",""
"595.195000000298","<img src='stim/b/water_fall_images.jpg'><img style='width:200px; height:200px; margin-bottom: 0px;' src='stim/fixation.png'><img src='stim/b/water_pines_distantMountains.jpg'>","48","html-keyboard-response","144","290813","0.0-12.0-1.32","training","ef","0.9","valid","10","e","avoid:lose","49","water_fall_images.jpg","water_pines_distantMountains.jpg","water_fall_images.jpg","GUID","1123","11/11/2020","12","M","right","21","0","0","4.4","losepoints.bmp","B","points"
"null","<img style='border: 5px solid #ffffff; padding-right:15px;' src='stim/b/water_fall_images.jpg'><img style='width:150px; height:150px; padding-right: 50px; padding-left: 50px; margin-bottom: 25px;' src='stim/losepoints.bmp'><img style='border: 5px solid #808080;'src='stim/b/water_pines_distantMountains.jpg'>","null","html-keyboard-response","145","291821","0.0-12.0-2.32","","","","","","","","","","","","","","","","","","","","","","","",""
"null","<img style='width:200px; height:200px; margin-left: 95px; margin-right: 95px;' src='stim/fixation.png'>","null","html-keyboard-response","146","292830","0.0-12.0-0.33","","","","","","","","","","","","","","","","","","","","","","","",""
"592.9449999998906","<img src='stim/b/waterfall_waterBelow.jpg'><img style='width:200px; height:200px; margin-bottom: 0px;' src='stim/fixation.png'><img src='stim/b/water_pines_snowy_moutain.jpg'>","48","html-keyboard-response","147","293428","0.0-12.0-1.33","training","gh","0.8","valid","10","g","avoid:lose","48","waterfall_waterBelow.jpg","water_pines_snowy_moutain.jpg","water_pines_snowy_moutain.jpg","GUID","1123","11/11/2020","12","M","right","22","0","1","4.4","keep_points.png","B","points"
"null","<img style='border: 5px solid #ffffff; padding-right:15px;' src='stim/b/waterfall_waterBelow.jpg'><img style='width:150px; height:150px; padding-right: 50px; padding-left: 50px; margin-bottom: 25px;' src='stim/keep_points.png'><img style='border: 5px solid #808080;'src='stim/b/water_pines_snowy_moutain.jpg'>","null","html-keyboard-response","148","294435","0.0-12.0-2.33","","","","","","","","","","","","","","","","","","","","","","","",""
"null","<img style='width:200px; height:200px; margin-left: 95px; margin-right: 95px;' src='stim/fixation.png'>","null","html-keyboard-response","149","295437","0.0-12.0-0.34","","","","","","","","","","","","","","","","","","","","","","","",""
"985.3800000000629","<img src='stim/b/lsingeltree_tallergrass_clouds.jpg'><img style='width:200px; height:200px; margin-bottom: 0px;' src='stim/fixation.png'><img src='stim/b/orangey_field.jpg'>","48","html-keyboard-response","150","296427","0.0-12.0-1.34","training","cd","0.8","valid","10","c","win:stay","49","lsingeltree_tallergrass_clouds.jpg","orangey_field.jpg","lsingeltree_tallergrass_clouds.jpg","GUID","1123","11/11/2020","12","M","right","23","0","0","4.4","not_winner.png","B","points"
"null","<img style='border: 5px solid #ffffff; padding-right:15px;' src='stim/b/lsingeltree_tallergrass_clouds.jpg'><img style='width:150px; height:150px; padding-right: 50px; padding-left: 50px; margin-bottom: 25px;' src='stim/not_winner.png'><img style='border: 5px solid #808080;'src='stim/b/orangey_field.jpg'>","null","html-keyboard-response","151","297434","0.0-12.0-2.34","","","","","","","","","","","","","","","","","","","","","","","",""
"null","<img style='width:200px; height:200px; margin-left: 95px; margin-right: 95px;' src='stim/fixation.png'>","null","html-keyboard-response","152","298438","0.0-12.0-0.35","","","","","","","","","","","","","","","","","","","","","","","",""
"544.9450000001234","<img src='stim/b/3d-landscape-background-10.jpg'><img style='width:200px; height:200px; margin-bottom: 0px;' src='stim/fixation.png'><img src='stim/b/2822landscape.jpg'>","48","html-keyboard-response","153","298987","0.0-12.0-1.35","training","ab","0.9","valid","10","a","win:stay","49","3d-landscape-background-10.jpg","2822landscape.jpg","3d-landscape-background-10.jpg","GUID","1123","11/11/2020","12","M","right","24","0","0","4.4","not_winner.png","B","points"
"null","<img style='border: 5px solid #ffffff; padding-right:15px;' src='stim/b/3d-landscape-background-10.jpg'><img style='width:150px; height:150px; padding-right: 50px; padding-left: 50px; margin-bottom: 25px;' src='stim/not_winner.png'><img style='border: 5px solid #808080;'src='stim/b/2822landscape.jpg'>","null","html-keyboard-response","154","299992","0.0-12.0-2.35","","","","","","","","","","","","","","","","","","","","","","","",""
"null","<img style='width:200px; height:200px; margin-left: 95px; margin-right: 95px;' src='stim/fixation.png'>","null","html-keyboard-response","155","300997","0.0-12.0-0.36","","","","","","","","","","","","","","","","","","","","","","","",""
"611.2899999998626","<img src='stim/b/lsingeltree_tallergrass_clouds.jpg'><img style='width:200px; height:200px; margin-bottom: 0px;' src='stim/fixation.png'><img src='stim/b/orangey_field.jpg'>","48","html-keyboard-response","156","301613","0.0-12.0-1.36","training","cd","0.8","valid","10","c","win:stay","49","lsingeltree_tallergrass_clouds.jpg","orangey_field.jpg","lsingeltree_tallergrass_clouds.jpg","GUID","1123","11/11/2020","12","M","right","25","0","0","4.4","not_winner.png","B","points"
"null","<img style='border: 5px solid #ffffff; padding-right:15px;' src='stim/b/lsingeltree_tallergrass_clouds.jpg'><img style='width:150px; height:150px; padding-right: 50px; padding-left: 50px; margin-bottom: 25px;' src='stim/not_winner.png'><img style='border: 5px solid #808080;'src='stim/b/orangey_field.jpg'>","null","html-keyboard-response","157","302616","0.0-12.0-2.36","","","","","","","","","","","","","","","","","","","","","","","",""
"null","<img style='width:200px; height:200px; margin-left: 95px; margin-right: 95px;' src='stim/fixation.png'>","null","html-keyboard-response","158","303619","0.0-12.0-0.37","","","","","","","","","","","","","","","","","","","","","","","",""
"476.9849999998114","<img src='stim/b/water_pines_snowy_moutain.jpg'><img style='width:200px; height:200px; margin-bottom: 0px;' src='stim/fixation.png'><img src='stim/b/waterfall_waterBelow.jpg'>","48","html-keyboard-response","159","304100","0.0-12.0-1.37","training","gh","0.8","invalid","10","g","avoid:lose","49","waterfall_waterBelow.jpg","water_pines_snowy_moutain.jpg","water_pines_snowy_moutain.jpg","GUID","1123","11/11/2020","12","M","right","26","0","0","4.4","keep_points.png","B","points"
"null","<img style='border: 5px solid #ffffff; padding-right:15px;' src='stim/b/water_pines_snowy_moutain.jpg'><img style='width:150px; height:150px; padding-right: 50px; padding-left: 50px; margin-bottom: 25px;' src='stim/keep_points.png'><img style='border: 5px solid #808080;'src='stim/b/waterfall_waterBelow.jpg'>","null","html-keyboard-response","160","305107","0.0-12.0-2.37","","","","","","","","","","","","","","","","","","","","","","","",""
"null","<img style='width:200px; height:200px; margin-left: 95px; margin-right: 95px;' src='stim/fixation.png'>","null","html-keyboard-response","161","306112","0.0-12.0-0.38","","","","","","","","","","","","","","","","","","","","","","","",""
"397.30999999982305","<img src='stim/b/3d-landscape-background-10.jpg'><img style='width:200px; height:200px; margin-bottom: 0px;' src='stim/fixation.png'><img src='stim/b/2822landscape.jpg'>","48","html-keyboard-response","162","306514","0.0-12.0-1.38","training","ab","0.9","valid","10","a","win:stay","49","3d-landscape-background-10.jpg","2822landscape.jpg","3d-landscape-background-10.jpg","GUID","1123","11/11/2020","12","M","right","27","0","0","4.4","not_winner.png","B","points"
"null","<img style='border: 5px solid #ffffff; padding-right:15px;' src='stim/b/3d-landscape-background-10.jpg'><img style='width:150px; height:150px; padding-right: 50px; padding-left: 50px; margin-bottom: 25px;' src='stim/not_winner.png'><img style='border: 5px solid #808080;'src='stim/b/2822landscape.jpg'>","null","html-keyboard-response","163","307522","0.0-12.0-2.38","","","","","","","","","","","","","","","","","","","","","","","",""
"null","<img style='width:200px; height:200px; margin-left: 95px; margin-right: 95px;' src='stim/fixation.png'>","null","html-keyboard-response","164","308529","0.0-12.0-0.39","","","","","","","","","","","","","","","","","","","","","","","",""
"497.66999999975087","<img src='stim/b/water_fall_images.jpg'><img style='width:200px; height:200px; margin-bottom: 0px;' src='stim/fixation.png'><img src='stim/b/water_pines_distantMountains.jpg'>","48","html-keyboard-response","165","309032","0.0-12.0-1.39","training","ef","0.9","valid","10","e","avoid:lose","49","water_fall_images.jpg","water_pines_distantMountains.jpg","water_fall_images.jpg","GUID","1123","11/11/2020","12","M","right","28","0","0","-0.6499999999999995","losepoints.bmp","B","points"
"null","<img style='border: 5px solid #ffffff; padding-right:15px;' src='stim/b/water_fall_images.jpg'><img style='width:150px; height:150px; padding-right: 50px; padding-left: 50px; margin-bottom: 25px;' src='stim/losepoints.bmp'><img style='border: 5px solid #808080;'src='stim/b/water_pines_distantMountains.jpg'>","null","html-keyboard-response","166","310041","0.0-12.0-2.39","","","","","","","","","","","","","","","","","","","","","","","",""
"3376.780000000086","<p>Starting a new block of trials.</p> <p>Press the spacebar to begin.</p>","32","html-keyboard-response","167","313923","0.0-13.0","","","","","","","","","","","","","","","","","","","","","","","",""
"null","<img style='width:200px; height:200px; margin-left: 95px; margin-right: 95px;' src='stim/fixation.png'>","null","html-keyboard-response","168","314428","0.0-14.0-0.0","","","","","","","","","","","","","","","","","","","","","","","",""
"893.2799999997951","<img src='stim/b/2822landscape.jpg'><img style='width:200px; height:200px; margin-bottom: 0px;' src='stim/fixation.png'><img src='stim/b/3d-landscape-background-10.jpg'>","48","html-keyboard-response","169","315326","0.0-14.0-1.0","training","ab","0.9","valid","10","a","win:stay","48","2822landscape.jpg","3d-landscape-background-10.jpg","3d-landscape-background-10.jpg","GUID","1123","11/11/2020","12","M","right","29","0","1","4.3500000000000005","winpoints.bmp","B","points"
"null","<img style='border: 5px solid #ffffff; padding-right:15px;' src='stim/b/2822landscape.jpg'><img style='width:150px; height:150px; padding-right: 50px; padding-left: 50px; margin-bottom: 25px;' src='stim/winpoints.bmp'><img style='border: 5px solid #808080;'src='stim/b/3d-landscape-background-10.jpg'>","null","html-keyboard-response","170","316332","0.0-14.0-2.0","","","","","","","","","","","","","","","","","","","","","","","",""
"null","<img style='width:200px; height:200px; margin-left: 95px; margin-right: 95px;' src='stim/fixation.png'>","null","html-keyboard-response","171","317336","0.0-14.0-0.1","","","","","","","","","","","","","","","","","","","","","","","",""
"236.56500000017695","<img src='stim/b/lsingeltree_tallergrass_clouds.jpg'><img style='width:200px; height:200px; margin-bottom: 0px;' src='stim/fixation.png'><img src='stim/b/orangey_field.jpg'>","48","html-keyboard-response","172","317577","0.0-14.0-1.1","training","cd","0.8","invalid","10","c","win:stay","49","lsingeltree_tallergrass_clouds.jpg","orangey_field.jpg","lsingeltree_tallergrass_clouds.jpg","GUID","1123","11/11/2020","12","M","right","30","0","0","9.350000000000001","winpoints.bmp","B","points"
"null","<img style='border: 5px solid #ffffff; padding-right:15px;' src='stim/b/lsingeltree_tallergrass_clouds.jpg'><img style='width:150px; height:150px; padding-right: 50px; padding-left: 50px; margin-bottom: 25px;' src='stim/winpoints.bmp'><img style='border: 5px solid #808080;'src='stim/b/orangey_field.jpg'>","null","html-keyboard-response","173","318584","0.0-14.0-2.1","","","","","","","","","","","","","","","","","","","","","","","",""
"null","<img style='width:200px; height:200px; margin-left: 95px; margin-right: 95px;' src='stim/fixation.png'>","null","html-keyboard-response","174","319590","0.0-14.0-0.2","","","","","","","","","","","","","","","","","","","","","","","",""
"342.09499999997206","<img src='stim/b/water_pines_distantMountains.jpg'><img style='width:200px; height:200px; margin-bottom: 0px;' src='stim/fixation.png'><img src='stim/b/water_fall_images.jpg'>","48","html-keyboard-response","175","319937","0.0-14.0-1.2","training","ef","0.9","valid","10","e","avoid:lose","48","water_pines_distantMountains.jpg","water_fall_images.jpg","water_fall_images.jpg","GUID","1123","11/11/2020","12","M","right","31","0","1","9.350000000000001","keep_points.png","B","points"
"null","<img style='border: 5px solid #ffffff; padding-right:15px;' src='stim/b/water_pines_distantMountains.jpg'><img style='width:150px; height:150px; padding-right: 50px; padding-left: 50px; margin-bottom: 25px;' src='stim/keep_points.png'><img style='border: 5px solid #808080;'src='stim/b/water_fall_images.jpg'>","null","html-keyboard-response","176","320945","0.0-14.0-2.2","","","","","","","","","","","","","","","","","","","","","","","",""
"null","<img style='width:200px; height:200px; margin-left: 95px; margin-right: 95px;' src='stim/fixation.png'>","null","html-keyboard-response","177","321951","0.0-14.0-0.3","","","","","","","","","","","","","","","","","","","","","","","",""
"250.14000000013039","<img src='stim/b/water_pines_snowy_moutain.jpg'><img style='width:200px; height:200px; margin-bottom: 0px;' src='stim/fixation.png'><img src='stim/b/waterfall_waterBelow.jpg'>","48","html-keyboard-response","178","322206","0.0-14.0-1.3","training","gh","0.8","valid","10","g","avoid:lose","49","waterfall_waterBelow.jpg","water_pines_snowy_moutain.jpg","water_pines_snowy_moutain.jpg","GUID","1123","11/11/2020","12","M","right","32","0","0","4.300000000000001","losepoints.bmp","B","points"
"null","<img style='border: 5px solid #ffffff; padding-right:15px;' src='stim/b/water_pines_snowy_moutain.jpg'><img style='width:150px; height:150px; padding-right: 50px; padding-left: 50px; margin-bottom: 25px;' src='stim/losepoints.bmp'><img style='border: 5px solid #808080;'src='stim/b/waterfall_waterBelow.jpg'>","null","html-keyboard-response","179","323210","0.0-14.0-2.3","","","","","","","","","","","","","","","","","","","","","","","",""
"null","<img style='width:200px; height:200px; margin-left: 95px; margin-right: 95px;' src='stim/fixation.png'>","null","html-keyboard-response","180","324215","0.0-14.0-0.4","","","","","","","","","","","","","","","","","","","","","","","",""
"406.49500000016997","<img src='stim/b/water_pines_distantMountains.jpg'><img style='width:200px; height:200px; margin-bottom: 0px;' src='stim/fixation.png'><img src='stim/b/water_fall_images.jpg'>","48","html-keyboard-response","181","324627","0.0-14.0-1.4","training","ef","0.9","valid","10","e","avoid:lose","48","water_pines_distantMountains.jpg","water_fall_images.jpg","water_fall_images.jpg","GUID","1123","11/11/2020","12","M","right","33","0","1","4.300000000000001","keep_points.png","B","points"
"null","<img style='border: 5px solid #ffffff; padding-right:15px;' src='stim/b/water_pines_distantMountains.jpg'><img style='width:150px; height:150px; padding-right: 50px; padding-left: 50px; margin-bottom: 25px;' src='stim/keep_points.png'><img style='border: 5px solid #808080;'src='stim/b/water_fall_images.jpg'>","null","html-keyboard-response","182","325629","0.0-14.0-2.4","","","","","","","","","","","","","","","","","","","","","","","",""
"null","<img style='width:200px; height:200px; margin-left: 95px; margin-right: 95px;' src='stim/fixation.png'>","null","html-keyboard-response","183","326633","0.0-14.0-0.5","","","","","","","","","","","","","","","","","","","","","","","",""
"1177.4100000002654","<img src='stim/b/water_pines_snowy_moutain.jpg'><img style='width:200px; height:200px; margin-bottom: 0px;' src='stim/fixation.png'><img src='stim/b/waterfall_waterBelow.jpg'>","48","html-keyboard-response","184","327814","0.0-14.0-1.5","training","gh","0.8","valid","10","g","avoid:lose","49","waterfall_waterBelow.jpg","water_pines_snowy_moutain.jpg","water_pines_snowy_moutain.jpg","GUID","1123","11/11/2020","12","M","right","34","0","0","-0.7499999999999991","losepoints.bmp","B","points"
"null","<img style='border: 5px solid #ffffff; padding-right:15px;' src='stim/b/water_pines_snowy_moutain.jpg'><img style='width:150px; height:150px; padding-right: 50px; padding-left: 50px; margin-bottom: 25px;' src='stim/losepoints.bmp'><img style='border: 5px solid #808080;'src='stim/b/waterfall_waterBelow.jpg'>","null","html-keyboard-response","185","328819","0.0-14.0-2.5","","","","","","","","","","","","","","","","","","","","","","","",""
"null","<img style='width:200px; height:200px; margin-left: 95px; margin-right: 95px;' src='stim/fixation.png'>","null","html-keyboard-response","186","329824","0.0-14.0-0.6","","","","","","","","","","","","","","","","","","","","","","","",""
"569.6550000002026","<img src='stim/b/3d-landscape-background-10.jpg'><img style='width:200px; height:200px; margin-bottom: 0px;' src='stim/fixation.png'><img src='stim/b/2822landscape.jpg'>","48","html-keyboard-response","187","330398","0.0-14.0-1.6","training","ab","0.9","valid","10","a","win:stay","49","3d-landscape-background-10.jpg","2822landscape.jpg","3d-landscape-background-10.jpg","GUID","1123","11/11/2020","12","M","right","35","0","0","-0.7499999999999991","not_winner.png","B","points"
"null","<img style='border: 5px solid #ffffff; padding-right:15px;' src='stim/b/3d-landscape-background-10.jpg'><img style='width:150px; height:150px; padding-right: 50px; padding-left: 50px; margin-bottom: 25px;' src='stim/not_winner.png'><img style='border: 5px solid #808080;'src='stim/b/2822landscape.jpg'>","null","html-keyboard-response","188","331401","0.0-14.0-2.6","","","","","","","","","","","","","","","","","","","","","","","",""
"null","<img style='width:200px; height:200px; margin-left: 95px; margin-right: 95px;' src='stim/fixation.png'>","null","html-keyboard-response","189","332409","0.0-14.0-0.7","","","","","","","","","","","","","","","","","","","","","","","",""
"477.3399999999092","<img src='stim/b/orangey_field.jpg'><img style='width:200px; height:200px; margin-bottom: 0px;' src='stim/fixation.png'><img src='stim/b/lsingeltree_tallergrass_clouds.jpg'>","48","html-keyboard-response","190","332891","0.0-14.0-1.7","training","cd","0.8","invalid","10","c","win:stay","48","orangey_field.jpg","lsingeltree_tallergrass_clouds.jpg","lsingeltree_tallergrass_clouds.jpg","GUID","1123","11/11/2020","12","M","right","36","0","1","-0.7499999999999991","not_winner.png","B","points"
"null","<img style='border: 5px solid #ffffff; padding-right:15px;' src='stim/b/orangey_field.jpg'><img style='width:150px; height:150px; padding-right: 50px; padding-left: 50px; margin-bottom: 25px;' src='stim/not_winner.png'><img style='border: 5px solid #808080;'src='stim/b/lsingeltree_tallergrass_clouds.jpg'>","null","html-keyboard-response","191","333894","0.0-14.0-2.7","","","","","","","","","","","","","","","","","","","","","","","",""
"null","<img style='width:200px; height:200px; margin-left: 95px; margin-right: 95px;' src='stim/fixation.png'>","null","html-keyboard-response","192","334897","0.0-14.0-0.8","","","","","","","","","","","","","","","","","","","","","","","",""
"1302.2999999998137","<img src='stim/b/3d-landscape-background-10.jpg'><img style='width:200px; height:200px; margin-bottom: 0px;' src='stim/fixation.png'><img src='stim/b/2822landscape.jpg'>","48","html-keyboard-response","193","336205","0.0-14.0-1.8","training","ab","0.9","valid","10","a","win:stay","49","3d-landscape-background-10.jpg","2822landscape.jpg","3d-landscape-background-10.jpg","GUID","1123","11/11/2020","12","M","right","37","0","0","-0.7499999999999991","not_winner.png","B","points"
"null","<img style='border: 5px solid #ffffff; padding-right:15px;' src='stim/b/3d-landscape-background-10.jpg'><img style='width:150px; height:150px; padding-right: 50px; padding-left: 50px; margin-bottom: 25px;' src='stim/not_winner.png'><img style='border: 5px solid #808080;'src='stim/b/2822landscape.jpg'>","null","html-keyboard-response","194","337210","0.0-14.0-2.8","","","","","","","","","","","","","","","","","","","","","","","",""
"null","<img style='width:200px; height:200px; margin-left: 95px; margin-right: 95px;' src='stim/fixation.png'>","null","html-keyboard-response","195","338216","0.0-14.0-0.9","","","","","","","","","","","","","","","","","","","","","","","",""
"2298.725000000093","<img src='stim/b/orangey_field.jpg'><img style='width:200px; height:200px; margin-bottom: 0px;' src='stim/fixation.png'><img src='stim/b/lsingeltree_tallergrass_clouds.jpg'>","48","html-keyboard-response","196","340519","0.0-14.0-1.9","training","cd","0.8","valid","10","c","win:stay","48","orangey_field.jpg","lsingeltree_tallergrass_clouds.jpg","lsingeltree_tallergrass_clouds.jpg","GUID","1123","11/11/2020","12","M","right","38","0","1","4.250000000000001","winpoints.bmp","B","points"
"null","<img style='border: 5px solid #ffffff; padding-right:15px;' src='stim/b/orangey_field.jpg'><img style='width:150px; height:150px; padding-right: 50px; padding-left: 50px; margin-bottom: 25px;' src='stim/winpoints.bmp'><img style='border: 5px solid #808080;'src='stim/b/lsingeltree_tallergrass_clouds.jpg'>","null","html-keyboard-response","197","341523","0.0-14.0-2.9","","","","","","","","","","","","","","","","","","","","","","","",""
"null","<img style='width:200px; height:200px; margin-left: 95px; margin-right: 95px;' src='stim/fixation.png'>","null","html-keyboard-response","198","342530","0.0-14.0-0.10","","","","","","","","","","","","","","","","","","","","","","","",""
"717.7249999999767","<img src='stim/b/waterfall_waterBelow.jpg'><img style='width:200px; height:200px; margin-bottom: 0px;' src='stim/fixation.png'><img src='stim/b/water_pines_snowy_moutain.jpg'>","48","html-keyboard-response","199","343253","0.0-14.0-1.10","training","gh","0.8","valid","10","g","avoid:lose","48","waterfall_waterBelow.jpg","water_pines_snowy_moutain.jpg","water_pines_snowy_moutain.jpg","GUID","1123","11/11/2020","12","M","right","39","0","1","4.250000000000001","keep_points.png","B","points"
"null","<img style='border: 5px solid #ffffff; padding-right:15px;' src='stim/b/waterfall_waterBelow.jpg'><img style='width:150px; height:150px; padding-right: 50px; padding-left: 50px; margin-bottom: 25px;' src='stim/keep_points.png'><img style='border: 5px solid #808080;'src='stim/b/water_pines_snowy_moutain.jpg'>","null","html-keyboard-response","200","344260","0.0-14.0-2.10","","","","","","","","","","","","","","","","","","","","","","","",""
"null","<img style='width:200px; height:200px; margin-left: 95px; margin-right: 95px;' src='stim/fixation.png'>","null","html-keyboard-response","201","345267","0.0-14.0-0.11","","","","","","","","","","","","","","","","","","","","","","","",""
"336.0450000000419","<img src='stim/b/water_fall_images.jpg'><img style='width:200px; height:200px; margin-bottom: 0px;' src='stim/fixation.png'><img src='stim/b/water_pines_distantMountains.jpg'>","48","html-keyboard-response","202","345609","0.0-14.0-1.11","training","ef","0.9","valid","10","e","avoid:lose","49","water_fall_images.jpg","water_pines_distantMountains.jpg","water_fall_images.jpg","GUID","1123","11/11/2020","12","M","right","40","0","0","-0.7999999999999989","losepoints.bmp","B","points"
"null","<img style='border: 5px solid #ffffff; padding-right:15px;' src='stim/b/water_fall_images.jpg'><img style='width:150px; height:150px; padding-right: 50px; padding-left: 50px; margin-bottom: 25px;' src='stim/losepoints.bmp'><img style='border: 5px solid #808080;'src='stim/b/water_pines_distantMountains.jpg'>","null","html-keyboard-response","203","346617","0.0-14.0-2.11","","","","","","","","","","","","","","","","","","","","","","","",""
"null","<img style='width:200px; height:200px; margin-left: 95px; margin-right: 95px;' src='stim/fixation.png'>","null","html-keyboard-response","204","347625","0.0-14.0-0.12","","","","","","","","","","","","","","","","","","","","","","","",""
"427.0299999998533","<img src='stim/b/orangey_field.jpg'><img style='width:200px; height:200px; margin-bottom: 0px;' src='stim/fixation.png'><img src='stim/b/lsingeltree_tallergrass_clouds.jpg'>","48","html-keyboard-response","205","348057","0.0-14.0-1.12","training","cd","0.8","valid","10","c","win:stay","48","orangey_field.jpg","lsingeltree_tallergrass_clouds.jpg","lsingeltree_tallergrass_clouds.jpg","GUID","1123","11/11/2020","12","M","right","1","1","1","4.200000000000001","winpoints.bmp","B","points"
"null","<img style='border: 5px solid #ffffff; padding-right:15px;' src='stim/b/orangey_field.jpg'><img style='width:150px; height:150px; padding-right: 50px; padding-left: 50px; margin-bottom: 25px;' src='stim/winpoints.bmp'><img style='border: 5px solid #808080;'src='stim/b/lsingeltree_tallergrass_clouds.jpg'>","null","html-keyboard-response","206","349066","0.0-14.0-2.12","","","","","","","","","","","","","","","","","","","","","","","",""
"null","<img style='width:200px; height:200px; margin-left: 95px; margin-right: 95px;' src='stim/fixation.png'>","null","html-keyboard-response","207","350072","0.0-14.0-0.13","","","","","","","","","","","","","","","","","","","","","","","",""
"521.0400000000373","<img src='stim/b/water_pines_distantMountains.jpg'><img style='width:200px; height:200px; margin-bottom: 0px;' src='stim/fixation.png'><img src='stim/b/water_fall_images.jpg'>","48","html-keyboard-response","208","350598","0.0-14.0-1.13","training","ef","0.9","invalid","10","e","avoid:lose","48","water_pines_distantMountains.jpg","water_fall_images.jpg","water_fall_images.jpg","GUID","1123","11/11/2020","12","M","right","2","1","1","-0.7999999999999989","losepoints.bmp","B","points"
"null","<img style='border: 5px solid #ffffff; padding-right:15px;' src='stim/b/water_pines_distantMountains.jpg'><img style='width:150px; height:150px; padding-right: 50px; padding-left: 50px; margin-bottom: 25px;' src='stim/losepoints.bmp'><img style='border: 5px solid #808080;'src='stim/b/water_fall_images.jpg'>","null","html-keyboard-response","209","351607","0.0-14.0-2.13","","","","","","","","","","","","","","","","","","","","","","","",""
"null","<img style='width:200px; height:200px; margin-left: 95px; margin-right: 95px;' src='stim/fixation.png'>","null","html-keyboard-response","210","352611","0.0-14.0-0.14","","","","","","","","","","","","","","","","","","","","","","","",""
"438.7350000006263","<img src='stim/b/waterfall_waterBelow.jpg'><img style='width:200px; height:200px; margin-bottom: 0px;' src='stim/fixation.png'><img src='stim/b/water_pines_snowy_moutain.jpg'>","48","html-keyboard-response","211","353053","0.0-14.0-1.14","training","gh","0.8","invalid","10","g","avoid:lose","48","waterfall_waterBelow.jpg","water_pines_snowy_moutain.jpg","water_pines_snowy_moutain.jpg","GUID","1123","11/11/2020","12","M","right","3","1","1","-5.799999999999999","losepoints.bmp","B","points"
"null","<img style='border: 5px solid #ffffff; padding-right:15px;' src='stim/b/waterfall_waterBelow.jpg'><img style='width:150px; height:150px; padding-right: 50px; padding-left: 50px; margin-bottom: 25px;' src='stim/losepoints.bmp'><img style='border: 5px solid #808080;'src='stim/b/water_pines_snowy_moutain.jpg'>","null","html-keyboard-response","212","354061","0.0-14.0-2.14","","","","","","","","","","","","","","","","","","","","","","","",""
"null","<img style='width:200px; height:200px; margin-left: 95px; margin-right: 95px;' src='stim/fixation.png'>","null","html-keyboard-response","213","355066","0.0-14.0-0.15","","","","","","","","","","","","","","","","","","","","","","","",""
"459.50499999983003","<img src='stim/b/2822landscape.jpg'><img style='width:200px; height:200px; margin-bottom: 0px;' src='stim/fixation.png'><img src='stim/b/3d-landscape-background-10.jpg'>","48","html-keyboard-response","214","355531","0.0-14.0-1.15","training","ab","0.9","valid","10","a","win:stay","48","2822landscape.jpg","3d-landscape-background-10.jpg","3d-landscape-background-10.jpg","GUID","1123","11/11/2020","12","M","right","4","1","1","-0.7999999999999989","winpoints.bmp","B","points"
"null","<img style='border: 5px solid #ffffff; padding-right:15px;' src='stim/b/2822landscape.jpg'><img style='width:150px; height:150px; padding-right: 50px; padding-left: 50px; margin-bottom: 25px;' src='stim/winpoints.bmp'><img style='border: 5px solid #808080;'src='stim/b/3d-landscape-background-10.jpg'>","null","html-keyboard-response","215","356540","0.0-14.0-2.15","","","","","","","","","","","","","","","","","","","","","","","",""
"null","<img style='width:200px; height:200px; margin-left: 95px; margin-right: 95px;' src='stim/fixation.png'>","null","html-keyboard-response","216","357547","0.0-14.0-0.16","","","","","","","","","","","","","","","","","","","","","","","",""
"722.649999999674","<img src='stim/b/water_pines_snowy_moutain.jpg'><img style='width:200px; height:200px; margin-bottom: 0px;' src='stim/fixation.png'><img src='stim/b/waterfall_waterBelow.jpg'>","48","html-keyboard-response","217","358274","0.0-14.0-1.16","training","gh","0.8","valid","10","g","avoid:lose","49","waterfall_waterBelow.jpg","water_pines_snowy_moutain.jpg","water_pines_snowy_moutain.jpg","GUID","1123","11/11/2020","12","M","right","5","1","0","-5.849999999999999","losepoints.bmp","B","points"
"null","<img style='border: 5px solid #ffffff; padding-right:15px;' src='stim/b/water_pines_snowy_moutain.jpg'><img style='width:150px; height:150px; padding-right: 50px; padding-left: 50px; margin-bottom: 25px;' src='stim/losepoints.bmp'><img style='border: 5px solid #808080;'src='stim/b/waterfall_waterBelow.jpg'>","null","html-keyboard-response","218","359283","0.0-14.0-2.16","","","","","","","","","","","","","","","","","","","","","","","",""
"null","<img style='width:200px; height:200px; margin-left: 95px; margin-right: 95px;' src='stim/fixation.png'>","null","html-keyboard-response","219","360290","0.0-14.0-0.17","","","","","","","","","","","","","","","","","","","","","","","",""
"2910.9900000002817","<img src='stim/b/water_fall_images.jpg'><img style='width:200px; height:200px; margin-bottom: 0px;' src='stim/fixation.png'><img src='stim/b/water_pines_distantMountains.jpg'>","48","html-keyboard-response","220","363206","0.0-14.0-1.17","training","ef","0.9","valid","10","e","avoid:lose","49","water_fall_images.jpg","water_pines_distantMountains.jpg","water_fall_images.jpg","GUID","1123","11/11/2020","12","M","right","6","1","0","-10.899999999999999","losepoints.bmp","B","points"
"null","<img style='border: 5px solid #ffffff; padding-right:15px;' src='stim/b/water_fall_images.jpg'><img style='width:150px; height:150px; padding-right: 50px; padding-left: 50px; margin-bottom: 25px;' src='stim/losepoints.bmp'><img style='border: 5px solid #808080;'src='stim/b/water_pines_distantMountains.jpg'>","null","html-keyboard-response","221","364211","0.0-14.0-2.17","","","","","","","","","","","","","","","","","","","","","","","",""
"null","<img style='width:200px; height:200px; margin-left: 95px; margin-right: 95px;' src='stim/fixation.png'>","null","html-keyboard-response","222","365218","0.0-14.0-0.18","","","","","","","","","","","","","","","","","","","","","","","",""
"534.5550000002258","<img src='stim/b/lsingeltree_tallergrass_clouds.jpg'><img style='width:200px; height:200px; margin-bottom: 0px;' src='stim/fixation.png'><img src='stim/b/orangey_field.jpg'>","48","html-keyboard-response","223","365758","0.0-14.0-1.18","training","cd","0.8","valid","10","c","win:stay","49","lsingeltree_tallergrass_clouds.jpg","orangey_field.jpg","lsingeltree_tallergrass_clouds.jpg","GUID","1123","11/11/2020","12","M","right","7","1","0","-10.899999999999999","not_winner.png","B","points"
"null","<img style='border: 5px solid #ffffff; padding-right:15px;' src='stim/b/lsingeltree_tallergrass_clouds.jpg'><img style='width:150px; height:150px; padding-right: 50px; padding-left: 50px; margin-bottom: 25px;' src='stim/not_winner.png'><img style='border: 5px solid #808080;'src='stim/b/orangey_field.jpg'>","null","html-keyboard-response","224","366765","0.0-14.0-2.18","","","","","","","","","","","","","","","","","","","","","","","",""
"null","<img style='width:200px; height:200px; margin-left: 95px; margin-right: 95px;' src='stim/fixation.png'>","null","html-keyboard-response","225","367773","0.0-14.0-0.19","","","","","","","","","","","","","","","","","","","","","","","",""
"738.4449999999488","<img src='stim/b/2822landscape.jpg'><img style='width:200px; height:200px; margin-bottom: 0px;' src='stim/fixation.png'><img src='stim/b/3d-landscape-background-10.jpg'>","48","html-keyboard-response","226","368516","0.0-14.0-1.19","training","ab","0.9","valid","10","a","win:stay","48","2822landscape.jpg","3d-landscape-background-10.jpg","3d-landscape-background-10.jpg","GUID","1123","11/11/2020","12","M","right","8","1","1","-5.899999999999999","winpoints.bmp","B","points"
"null","<img style='border: 5px solid #ffffff; padding-right:15px;' src='stim/b/2822landscape.jpg'><img style='width:150px; height:150px; padding-right: 50px; padding-left: 50px; margin-bottom: 25px;' src='stim/winpoints.bmp'><img style='border: 5px solid #808080;'src='stim/b/3d-landscape-background-10.jpg'>","null","html-keyboard-response","227","369525","0.0-14.0-2.19","","","","","","","","","","","","","","","","","","","","","","","",""
"null","<img style='width:200px; height:200px; margin-left: 95px; margin-right: 95px;' src='stim/fixation.png'>","null","html-keyboard-response","228","370532","0.0-14.0-0.20","","","","","","","","","","","","","","","","","","","","","","","",""
"1374.1899999995367","<img src='stim/b/waterfall_waterBelow.jpg'><img style='width:200px; height:200px; margin-bottom: 0px;' src='stim/fixation.png'><img src='stim/b/water_pines_snowy_moutain.jpg'>","48","html-keyboard-response","229","371911","0.0-14.0-1.20","training","gh","0.8","valid","10","g","avoid:lose","48","waterfall_waterBelow.jpg","water_pines_snowy_moutain.jpg","water_pines_snowy_moutain.jpg","GUID","1123","11/11/2020","12","M","right","9","1","1","-5.899999999999999","keep_points.png","B","points"
"null","<img style='border: 5px solid #ffffff; padding-right:15px;' src='stim/b/waterfall_waterBelow.jpg'><img style='width:150px; height:150px; padding-right: 50px; padding-left: 50px; margin-bottom: 25px;' src='stim/keep_points.png'><img style='border: 5px solid #808080;'src='stim/b/water_pines_snowy_moutain.jpg'>","null","html-keyboard-response","230","372912","0.0-14.0-2.20","","","","","","","","","","","","","","","","","","","","","","","",""
"null","<img style='width:200px; height:200px; margin-left: 95px; margin-right: 95px;' src='stim/fixation.png'>","null","html-keyboard-response","231","373919","0.0-14.0-0.21","","","","","","","","","","","","","","","","","","","","","","","",""
"608.2949999999837","<img src='stim/b/water_pines_distantMountains.jpg'><img style='width:200px; height:200px; margin-bottom: 0px;' src='stim/fixation.png'><img src='stim/b/water_fall_images.jpg'>","48","html-keyboard-response","232","374532","0.0-14.0-1.21","training","ef","0.9","valid","10","e","avoid:lose","48","water_pines_distantMountains.jpg","water_fall_images.jpg","water_fall_images.jpg","GUID","1123","11/11/2020","12","M","right","10","1","1","-5.899999999999999","keep_points.png","B","points"
"null","<img style='border: 5px solid #ffffff; padding-right:15px;' src='stim/b/water_pines_distantMountains.jpg'><img style='width:150px; height:150px; padding-right: 50px; padding-left: 50px; margin-bottom: 25px;' src='stim/keep_points.png'><img style='border: 5px solid #808080;'src='stim/b/water_fall_images.jpg'>","null","html-keyboard-response","233","375540","0.0-14.0-2.21","","","","","","","","","","","","","","","","","","","","","","","",""
"null","<img style='width:200px; height:200px; margin-left: 95px; margin-right: 95px;' src='stim/fixation.png'>","null","html-keyboard-response","234","376547","0.0-14.0-0.22","","","","","","","","","","","","","","","","","","","","","","","",""
"516.2700000000768","<img src='stim/b/lsingeltree_tallergrass_clouds.jpg'><img style='width:200px; height:200px; margin-bottom: 0px;' src='stim/fixation.png'><img src='stim/b/orangey_field.jpg'>","48","html-keyboard-response","235","377068","0.0-14.0-1.22","training","cd","0.8","valid","10","c","win:stay","49","lsingeltree_tallergrass_clouds.jpg","orangey_field.jpg","lsingeltree_tallergrass_clouds.jpg","GUID","1123","11/11/2020","12","M","right","11","1","0","-5.899999999999999","not_winner.png","B","points"
"null","<img style='border: 5px solid #ffffff; padding-right:15px;' src='stim/b/lsingeltree_tallergrass_clouds.jpg'><img style='width:150px; height:150px; padding-right: 50px; padding-left: 50px; margin-bottom: 25px;' src='stim/not_winner.png'><img style='border: 5px solid #808080;'src='stim/b/orangey_field.jpg'>","null","html-keyboard-response","236","378075","0.0-14.0-2.22","","","","","","","","","","","","","","","","","","","","","","","",""
"null","<img style='width:200px; height:200px; margin-left: 95px; margin-right: 95px;' src='stim/fixation.png'>","null","html-keyboard-response","237","379082","0.0-14.0-0.23","","","","","","","","","","","","","","","","","","","","","","","",""
"1306.9699999996228","<img src='stim/b/2822landscape.jpg'><img style='width:200px; height:200px; margin-bottom: 0px;' src='stim/fixation.png'><img src='stim/b/3d-landscape-background-10.jpg'>","48","html-keyboard-response","238","380395","0.0-14.0-1.23","training","ab","0.9","valid","10","a","win:stay","48","2822landscape.jpg","3d-landscape-background-10.jpg","3d-landscape-background-10.jpg","GUID","1123","11/11/2020","12","M","right","12","1","1","-0.8999999999999986","winpoints.bmp","B","points"
"null","<img style='border: 5px solid #ffffff; padding-right:15px;' src='stim/b/2822landscape.jpg'><img style='width:150px; height:150px; padding-right: 50px; padding-left: 50px; margin-bottom: 25px;' src='stim/winpoints.bmp'><img style='border: 5px solid #808080;'src='stim/b/3d-landscape-background-10.jpg'>","null","html-keyboard-response","239","381400","0.0-14.0-2.23","","","","","","","","","","","","","","","","","","","","","","","",""
"null","<img style='width:200px; height:200px; margin-left: 95px; margin-right: 95px;' src='stim/fixation.png'>","null","html-keyboard-response","240","382408","0.0-14.0-0.24","","","","","","","","","","","","","","","","","","","","","","","",""
"604.7699999999022","<img src='stim/b/water_fall_images.jpg'><img style='width:200px; height:200px; margin-bottom: 0px;' src='stim/fixation.png'><img src='stim/b/water_pines_distantMountains.jpg'>","48","html-keyboard-response","241","383018","0.0-14.0-1.24","training","ef","0.9","valid","10","e","avoid:lose","49","water_fall_images.jpg","water_pines_distantMountains.jpg","water_fall_images.jpg","GUID","1123","11/11/2020","12","M","right","13","1","0","-5.949999999999998","losepoints.bmp","B","points"
"null","<img style='border: 5px solid #ffffff; padding-right:15px;' src='stim/b/water_fall_images.jpg'><img style='width:150px; height:150px; padding-right: 50px; padding-left: 50px; margin-bottom: 25px;' src='stim/losepoints.bmp'><img style='border: 5px solid #808080;'src='stim/b/water_pines_distantMountains.jpg'>","null","html-keyboard-response","242","384027","0.0-14.0-2.24","","","","","","","","","","","","","","","","","","","","","","","",""
"null","<img style='width:200px; height:200px; margin-left: 95px; margin-right: 95px;' src='stim/fixation.png'>","null","html-keyboard-response","243","385030","0.0-14.0-0.25","","","","","","","","","","","","","","","","","","","","","","","",""
"517.0049999996554","<img src='stim/b/orangey_field.jpg'><img style='width:200px; height:200px; margin-bottom: 0px;' src='stim/fixation.png'><img src='stim/b/lsingeltree_tallergrass_clouds.jpg'>","48","html-keyboard-response","244","385552","0.0-14.0-1.25","training","cd","0.8","valid","10","c","win:stay","48","orangey_field.jpg","lsingeltree_tallergrass_clouds.jpg","lsingeltree_tallergrass_clouds.jpg","GUID","1123","11/11/2020","12","M","right","14","1","1","-0.9499999999999984","winpoints.bmp","B","points"
"null","<img style='border: 5px solid #ffffff; padding-right:15px;' src='stim/b/orangey_field.jpg'><img style='width:150px; height:150px; padding-right: 50px; padding-left: 50px; margin-bottom: 25px;' src='stim/winpoints.bmp'><img style='border: 5px solid #808080;'src='stim/b/lsingeltree_tallergrass_clouds.jpg'>","null","html-keyboard-response","245","386560","0.0-14.0-2.25","","","","","","","","","","","","","","","","","","","","","","","",""
"null","<img style='width:200px; height:200px; margin-left: 95px; margin-right: 95px;' src='stim/fixation.png'>","null","html-keyboard-response","246","387566","0.0-14.0-0.26","","","","","","","","","","","","","","","","","","","","","","","",""
"212.80999999999767","<img src='stim/b/water_pines_snowy_moutain.jpg'><img style='width:200px; height:200px; margin-bottom: 0px;' src='stim/fixation.png'><img src='stim/b/waterfall_waterBelow.jpg'>","48","html-keyboard-response","247","387783","0.0-14.0-1.26","training","gh","0.8","valid","10","g","avoid:lose","49","waterfall_waterBelow.jpg","water_pines_snowy_moutain.jpg","water_pines_snowy_moutain.jpg","GUID","1123","11/11/2020","12","M","right","15","1","0","-5.999999999999998","losepoints.bmp","B","points"
