"rt","stimulus","key_press","trial_type","trial_index","time_elapsed","internal_node_id","test_part","pair","pair_validity","trial_validity","pair_trials_per_block","pair_best_choice","reward_type","correct_response","stim_left","stim_right","stim_best_choice","subjectkey","src_subject_id","site","interview_date","interview_age","sex","trial","block","accuracy","stim_feedback"
"1967.0200000036857","<h3 style=""color:#0ed145;"">Welcome to the experiment!</h3><p>Press the spacebar continue.</p>","32","html-keyboard-response","0","1970","0.0-0.0","","","","","","","","","","","","","","","","","","","","",""
"539.0249999982188","<p>In this task you will see two pictures side-by-side on the computer screen.</p><p>In each pair of pictures you see on the screen, one picture will be better than the other.</p><p>You need to figure out which picture in each pair is the better one.</p><p>Press the spacebar continue.</p>","32","html-keyboard-response","1","2510","0.0-1.0","","","","","","","","","","","","","","","","","","","","",""
"563.5150000016438","<p>The better picture in each pair will be more likely to either</p><p>A) win you some money,</p><p>or</p><p>B) allow you to keep the money you've already earned.</p><p>Press the spacebar continue.</p>","32","html-keyboard-response","2","3074","0.0-2.0","","","","","","","","","","","","","","","","","","","","",""
"493.21499999496154","<p>On those trials where you can A) win money, you will want to select the picture most likely to earn a nickel:</p><img style=""height:100px; width:100px"" src=""stim/win.bmp""</img><p>Because if you keep seeing this feedback:</p><img style=""height:125px; width:125px"" src=""stim/not_winner.png""></img><p>you probably aren't selecting the best picture...</p><p>Press the spacebar continue.</p>","32","html-keyboard-response","3","3568","0.0-3.0","","","","","","","","","","","","","","","","","","","","",""
"558.3699999988312","<p>On those trials where you can B) lose money, you will want to select the picture most likely to give this feedback:</p><img style=""height:125px; width:125px"" src=""stim/keep_money.png""></img><p>Because if you keep seeing this:</p><img style=""height:100px; width:100px"" src=""stim/lose.bmp""></img><p>you probably aren't selecting the best picture...</p><p>Press the spacebar continue.</p>","32","html-keyboard-response","4","4127","0.0-4.0","","","","","","","","","","","","","","","","","","","","",""
"621.3849999985541","<p>Press the 1 key on your keyboard to select the picture on the LEFT.</p><p>Press the 0 key on your keyboard to select the picture on the RIGHT.</p><p>Press the spacebar continue.</p>","32","html-keyboard-response","5","4749","0.0-5.0","","","","","","","","","","","","","","","","","","","","",""
"2261.2300000037067","<p>First you will do some practice trials.</p> <p>Press either button when you are ready to begin.</p>","49","html-keyboard-response","6","7011","0.0-6.0","","","","","","","","","","","","","","","","","","","","",""
"null","<img style='width:200px; height:200px; margin-left: 95px; margin-right: 95px;' src='stim/fixation.png'>","null","html-keyboard-response","7","7512","0.0-7.0-0.0","","","","","","","","","","","","","","","","","","","","",""
"284.0799999976298","<img src='stim/b/wheat_with_farmhouse.jpg'><img style='width:200px; height:200px; margin-bottom: 0px;' src='stim/fixation.png'><img src='stim/b/Trees_with_flowers.jpg'>","48","html-keyboard-response","8","7797","0.0-7.0-1.0","practice","ef","1","valid","6","e","avoid:lose","48","wheat_with_farmhouse.jpg","Trees_with_flowers.jpg","Trees_with_flowers.jpg","GUID","20892881","20","10/05/2020","12","M","1","1","1","keep_money.png"
"null","<img style='border: 5px solid #ffffff; padding-right:15px;' src='stim/b/wheat_with_farmhouse.jpg'><img style='width:150px; height:150px; padding-right: 50px; padding-left: 50px; margin-bottom: 50px;' src='stim/keep_money.png'><img style='border: 5px solid #808080;'src='stim/b/Trees_with_flowers.jpg'>","null","html-keyboard-response","9","8803","0.0-7.0-2.0","","","","","","","","","","","","","","","","","","","","",""
"null","<img style='width:200px; height:200px; margin-left: 95px; margin-right: 95px;' src='stim/fixation.png'>","null","html-keyboard-response","10","9808","0.0-7.0-0.1","","","","","","","","","","","","","","","","","","","","",""
"325.8799999966868","<img src='stim/b/African_landscape.jpg'><img style='width:200px; height:200px; margin-bottom: 0px;' src='stim/fixation.png'><img src='stim/b/closeWater_pines_mountains.jpg'>","49","html-keyboard-response","11","10135","0.0-7.0-1.1","practice","ab","1","valid","6","a","win:stay","49","African_landscape.jpg","closeWater_pines_mountains.jpg","African_landscape.jpg","GUID","20892881","20","10/05/2020","12","M","0","1","1","winwin.bmp"
"null","<img style='border: 5px solid #808080;' src='stim/b/African_landscape.jpg'><img style='width:150px; height:150px; padding-right: 50px; padding-left: 50px; margin-bottom: 50px;' src='stim/winwin.bmp'><img style='border: 5px solid #ffffff;  padding-left:15px;' src='stim/b/closeWater_pines_mountains.jpg'>","null","html-keyboard-response","12","11140","0.0-7.0-2.1","","","","","","","","","","","","","","","","","","","","",""
"null","<img style='width:200px; height:200px; margin-left: 95px; margin-right: 95px;' src='stim/fixation.png'>","null","html-keyboard-response","13","12146","0.0-7.0-0.2","","","","","","","","","","","","","","","","","","","","",""
"497.56499999784864","<img src='stim/b/closeWater_pines_mountains.jpg'><img style='width:200px; height:200px; margin-bottom: 0px;' src='stim/fixation.png'><img src='stim/b/African_landscape.jpg'>","48","html-keyboard-response","14","12644","0.0-7.0-1.2","practice","ab","1","valid","6","a","win:stay","48","closeWater_pines_mountains.jpg","African_landscape.jpg","African_landscape.jpg","GUID","20892881","20","10/05/2020","12","M","-1","1","1","winwin.bmp"
"null","<img style='border: 5px solid #ffffff; padding-right:15px;' src='stim/b/closeWater_pines_mountains.jpg'><img style='width:150px; height:150px; padding-right: 50px; padding-left: 50px; margin-bottom: 50px;' src='stim/winwin.bmp'><img style='border: 5px solid #808080;'src='stim/b/African_landscape.jpg'>","null","html-keyboard-response","15","13647","0.0-7.0-2.2","","","","","","","","","","","","","","","","","","","","",""
"null","<img style='width:200px; height:200px; margin-left: 95px; margin-right: 95px;' src='stim/fixation.png'>","null","html-keyboard-response","16","14651","0.0-7.0-0.3","","","","","","","","","","","","","","","","","","","","",""
"305.29999999998836","<img src='stim/b/Trees_with_flowers.jpg'><img style='width:200px; height:200px; margin-bottom: 0px;' src='stim/fixation.png'><img src='stim/b/wheat_with_farmhouse.jpg'>","49","html-keyboard-response","17","14958","0.0-7.0-1.3","practice","ef","1","valid","6","e","avoid:lose","49","Trees_with_flowers.jpg","wheat_with_farmhouse.jpg","Trees_with_flowers.jpg","GUID","20892881","20","10/05/2020","12","M","-2","1","1","keep_money.png"
"null","<img style='border: 5px solid #808080;' src='stim/b/Trees_with_flowers.jpg'><img style='width:150px; height:150px; padding-right: 50px; padding-left: 50px; margin-bottom: 50px;' src='stim/keep_money.png'><img style='border: 5px solid #ffffff;  padding-left:15px;' src='stim/b/wheat_with_farmhouse.jpg'>","null","html-keyboard-response","18","15961","0.0-7.0-2.3","","","","","","","","","","","","","","","","","","","","",""
"null","<img style='width:200px; height:200px; margin-left: 95px; margin-right: 95px;' src='stim/fixation.png'>","null","html-keyboard-response","19","16967","0.0-7.0-0.4","","","","","","","","","","","","","","","","","","","","",""
"360.2000000028056","<img src='stim/b/wheat_with_farmhouse.jpg'><img style='width:200px; height:200px; margin-bottom: 0px;' src='stim/fixation.png'><img src='stim/b/Trees_with_flowers.jpg'>","48","html-keyboard-response","20","17328","0.0-7.0-1.4","practice","ef","1","valid","6","e","avoid:lose","48","wheat_with_farmhouse.jpg","Trees_with_flowers.jpg","Trees_with_flowers.jpg","GUID","20892881","20","10/05/2020","12","M","-3","1","1","keep_money.png"
"null","<img style='border: 5px solid #ffffff; padding-right:15px;' src='stim/b/wheat_with_farmhouse.jpg'><img style='width:150px; height:150px; padding-right: 50px; padding-left: 50px; margin-bottom: 50px;' src='stim/keep_money.png'><img style='border: 5px solid #808080;'src='stim/b/Trees_with_flowers.jpg'>","null","html-keyboard-response","21","18329","0.0-7.0-2.4","","","","","","","","","","","","","","","","","","","","",""
"null","<img style='width:200px; height:200px; margin-left: 95px; margin-right: 95px;' src='stim/fixation.png'>","null","html-keyboard-response","22","19334","0.0-7.0-0.5","","","","","","","","","","","","","","","","","","","","",""
"398.2650000034482","<img src='stim/b/closeWater_pines_mountains.jpg'><img style='width:200px; height:200px; margin-bottom: 0px;' src='stim/fixation.png'><img src='stim/b/African_landscape.jpg'>","49","html-keyboard-response","23","19734","0.0-7.0-1.5","practice","ab","1","valid","6","a","win:stay","48","closeWater_pines_mountains.jpg","African_landscape.jpg","African_landscape.jpg","GUID","20892881","20","10/05/2020","12","M","-4","1","0","not_winner.png"
"null","<img style='border: 5px solid #808080;' src='stim/b/closeWater_pines_mountains.jpg'><img style='width:150px; height:150px; padding-right: 50px; padding-left: 50px; margin-bottom: 50px;' src='stim/not_winner.png'><img style='border: 5px solid #ffffff;  padding-left:15px;' src='stim/b/African_landscape.jpg'>","null","html-keyboard-response","24","20739","0.0-7.0-2.5","","","","","","","","","","","","","","","","","","","","",""
"null","<img style='width:200px; height:200px; margin-left: 95px; margin-right: 95px;' src='stim/fixation.png'>","null","html-keyboard-response","25","21745","0.0-7.0-0.6","","","","","","","","","","","","","","","","","","","","",""
"544.129999994766","<img src='stim/b/African_landscape.jpg'><img style='width:200px; height:200px; margin-bottom: 0px;' src='stim/fixation.png'><img src='stim/b/closeWater_pines_mountains.jpg'>","48","html-keyboard-response","26","22291","0.0-7.0-1.6","practice","ab","1","valid","6","a","win:stay","49","African_landscape.jpg","closeWater_pines_mountains.jpg","African_landscape.jpg","GUID","20892881","20","10/05/2020","12","M","-5","1","0","not_winner.png"
"null","<img style='border: 5px solid #ffffff; padding-right:15px;' src='stim/b/African_landscape.jpg'><img style='width:150px; height:150px; padding-right: 50px; padding-left: 50px; margin-bottom: 50px;' src='stim/not_winner.png'><img style='border: 5px solid #808080;'src='stim/b/closeWater_pines_mountains.jpg'>","null","html-keyboard-response","27","23294","0.0-7.0-2.6","","","","","","","","","","","","","","","","","","","","",""
"null","<img style='width:200px; height:200px; margin-left: 95px; margin-right: 95px;' src='stim/fixation.png'>","null","html-keyboard-response","28","24299","0.0-7.0-0.7","","","","","","","","","","","","","","","","","","","","",""
"305.39499999576947","<img src='stim/b/Trees_with_flowers.jpg'><img style='width:200px; height:200px; margin-bottom: 0px;' src='stim/fixation.png'><img src='stim/b/wheat_with_farmhouse.jpg'>","49","html-keyboard-response","29","24606","0.0-7.0-1.7","practice","ef","1","valid","6","e","avoid:lose","49","Trees_with_flowers.jpg","wheat_with_farmhouse.jpg","Trees_with_flowers.jpg","GUID","20892881","20","10/05/2020","12","M","-6","1","1","keep_money.png"
"null","<img style='border: 5px solid #808080;' src='stim/b/Trees_with_flowers.jpg'><img style='width:150px; height:150px; padding-right: 50px; padding-left: 50px; margin-bottom: 50px;' src='stim/keep_money.png'><img style='border: 5px solid #ffffff;  padding-left:15px;' src='stim/b/wheat_with_farmhouse.jpg'>","null","html-keyboard-response","30","25611","0.0-7.0-2.7","","","","","","","","","","","","","","","","","","","","",""
"null","<img style='width:200px; height:200px; margin-left: 95px; margin-right: 95px;' src='stim/fixation.png'>","null","html-keyboard-response","31","26617","0.0-7.0-0.8","","","","","","","","","","","","","","","","","","","","",""
"270.97499999945285","<img src='stim/b/wheat_with_farmhouse.jpg'><img style='width:200px; height:200px; margin-bottom: 0px;' src='stim/fixation.png'><img src='stim/b/Trees_with_flowers.jpg'>","48","html-keyboard-response","32","26889","0.0-7.0-1.8","practice","ef","1","valid","6","e","avoid:lose","48","wheat_with_farmhouse.jpg","Trees_with_flowers.jpg","Trees_with_flowers.jpg","GUID","20892881","20","10/05/2020","12","M","-7","1","1","keep_money.png"
"null","<img style='border: 5px solid #ffffff; padding-right:15px;' src='stim/b/wheat_with_farmhouse.jpg'><img style='width:150px; height:150px; padding-right: 50px; padding-left: 50px; margin-bottom: 50px;' src='stim/keep_money.png'><img style='border: 5px solid #808080;'src='stim/b/Trees_with_flowers.jpg'>","null","html-keyboard-response","33","27891","0.0-7.0-2.8","","","","","","","","","","","","","","","","","","","","",""
"null","<img style='width:200px; height:200px; margin-left: 95px; margin-right: 95px;' src='stim/fixation.png'>","null","html-keyboard-response","34","28896","0.0-7.0-0.9","","","","","","","","","","","","","","","","","","","","",""
"225.7599999938975","<img src='stim/b/African_landscape.jpg'><img style='width:200px; height:200px; margin-bottom: 0px;' src='stim/fixation.png'><img src='stim/b/closeWater_pines_mountains.jpg'>","49","html-keyboard-response","35","29123","0.0-7.0-1.9","practice","ab","1","valid","6","a","win:stay","49","African_landscape.jpg","closeWater_pines_mountains.jpg","African_landscape.jpg","GUID","20892881","20","10/05/2020","12","M","-8","1","1","winwin.bmp"
"null","<img style='border: 5px solid #808080;' src='stim/b/African_landscape.jpg'><img style='width:150px; height:150px; padding-right: 50px; padding-left: 50px; margin-bottom: 50px;' src='stim/winwin.bmp'><img style='border: 5px solid #ffffff;  padding-left:15px;' src='stim/b/closeWater_pines_mountains.jpg'>","null","html-keyboard-response","36","30127","0.0-7.0-2.9","","","","","","","","","","","","","","","","","","","","",""
"null","<img style='width:200px; height:200px; margin-left: 95px; margin-right: 95px;' src='stim/fixation.png'>","null","html-keyboard-response","37","31130","0.0-7.0-0.10","","","","","","","","","","","","","","","","","","","","",""
"342.85000000090804","<img src='stim/b/Trees_with_flowers.jpg'><img style='width:200px; height:200px; margin-bottom: 0px;' src='stim/fixation.png'><img src='stim/b/wheat_with_farmhouse.jpg'>","48","html-keyboard-response","38","31474","0.0-7.0-1.10","practice","ef","1","valid","6","e","avoid:lose","49","Trees_with_flowers.jpg","wheat_with_farmhouse.jpg","Trees_with_flowers.jpg","GUID","20892881","20","10/05/2020","12","M","-9","1","0","loselose.bmp"
"null","<img style='border: 5px solid #ffffff; padding-right:15px;' src='stim/b/Trees_with_flowers.jpg'><img style='width:150px; height:150px; padding-right: 50px; padding-left: 50px; margin-bottom: 50px;' src='stim/loselose.bmp'><img style='border: 5px solid #808080;'src='stim/b/wheat_with_farmhouse.jpg'>","null","html-keyboard-response","39","32478","0.0-7.0-2.10","","","","","","","","","","","","","","","","","","","","",""
"null","<img style='width:200px; height:200px; margin-left: 95px; margin-right: 95px;' src='stim/fixation.png'>","null","html-keyboard-response","40","33480","0.0-7.0-0.11","","","","","","","","","","","","","","","","","","","","",""
"288.7449999980163","<img src='stim/b/closeWater_pines_mountains.jpg'><img style='width:200px; height:200px; margin-bottom: 0px;' src='stim/fixation.png'><img src='stim/b/African_landscape.jpg'>","49","html-keyboard-response","41","33770","0.0-7.0-1.11","practice","ab","1","valid","6","a","win:stay","48","closeWater_pines_mountains.jpg","African_landscape.jpg","African_landscape.jpg","GUID","20892881","20","10/05/2020","12","M","-10","1","0","not_winner.png"
"null","<img style='border: 5px solid #808080;' src='stim/b/closeWater_pines_mountains.jpg'><img style='width:150px; height:150px; padding-right: 50px; padding-left: 50px; margin-bottom: 50px;' src='stim/not_winner.png'><img style='border: 5px solid #ffffff;  padding-left:15px;' src='stim/b/African_landscape.jpg'>","null","html-keyboard-response","42","34772","0.0-7.0-2.11","","","","","","","","","","","","","","","","","","","","",""
"2854.635000003327","<p>Great!</p> <p>Press the spacebar continue.</p>","32","html-keyboard-response","43","38132","0.0-8.0","","","","","","","","","","","","","","","","","","","","",""
"2362.4700000000303","<p>Now you will see some more pictures.</p><p>Do as before by pressing the 1 to choose the picture on the left, and pressing the 0 to choose the picture on the right.</p><p>Press the spacebar continue.</p>","32","html-keyboard-response","44","40495","0.0-9.0","","","","","","","","","","","","","","","","","","","","",""
"890.640000005078","<h3 style=""color:red;"">For the picture pairs where you can win money:</h3><p>You will not win every time you choose the ""best"" picture;</p><p>However, one picture gets rewarded much more often than the other picture.</p><h3 style=""color:red;"">For the picture pairs where the best you can do is keep your money:</h3><p>You will not be able to keep your money every time you choose the ""best"" picture;</p><p>However, one picture allows you to keep your money much more often than the other picture.</p><p>Press the spacebar continue.</p>","32","html-keyboard-response","45","41387","0.0-10.0","","","","","","","","","","","","","","","","","","","","",""
"929.9949999985984","<p>Press the spacebar when you are ready to begin.</p>","32","html-keyboard-response","46","42317","0.0-11.0","","","","","","","","","","","","","","","","","","","","",""
"null","<img style='width:200px; height:200px; margin-left: 95px; margin-right: 95px;' src='stim/fixation.png'>","null","html-keyboard-response","47","42820","0.0-12.0-0.0","","","","","","","","","","","","","","","","","","","","",""
"414.2349999965518","<img src='stim/b/waterfall_waterBelow.jpg'><img style='width:200px; height:200px; margin-bottom: 0px;' src='stim/fixation.png'><img src='stim/b/water_pines_snowy_moutain.jpg'>","48","html-keyboard-response","48","43236","0.0-12.0-1.0","training","gh","0.8","valid","10","g","avoid:lose","48","waterfall_waterBelow.jpg","water_pines_snowy_moutain.jpg","water_pines_snowy_moutain.jpg","GUID","20892881","20","10/05/2020","12","M","-11","1","1","keep_money.png"
"null","<img style='border: 5px solid #ffffff; padding-right:15px;' src='stim/b/waterfall_waterBelow.jpg'><img style='width:150px; height:150px; padding-right: 50px; padding-left: 50px; margin-bottom: 50px;' src='stim/keep_money.png'><img style='border: 5px solid #808080;'src='stim/b/water_pines_snowy_moutain.jpg'>","null","html-keyboard-response","49","44237","0.0-12.0-2.0","","","","","","","","","","","","","","","","","","","","",""
"null","<img style='width:200px; height:200px; margin-left: 95px; margin-right: 95px;' src='stim/fixation.png'>","null","html-keyboard-response","50","45240","0.0-12.0-0.1","","","","","","","","","","","","","","","","","","","","",""
"368.80000000383006","<img src='stim/b/lsingeltree_tallergrass_clouds.jpg'><img style='width:200px; height:200px; margin-bottom: 0px;' src='stim/fixation.png'><img src='stim/b/orangey_field.jpg'>","49","html-keyboard-response","51","45609","0.0-12.0-1.1","training","cd","0.8","valid","10","c","win:stay","49","lsingeltree_tallergrass_clouds.jpg","orangey_field.jpg","lsingeltree_tallergrass_clouds.jpg","GUID","20892881","20","10/05/2020","12","M","-10","1","1","winwin.bmp"
"null","<img style='border: 5px solid #808080;' src='stim/b/lsingeltree_tallergrass_clouds.jpg'><img style='width:150px; height:150px; padding-right: 50px; padding-left: 50px; margin-bottom: 50px;' src='stim/winwin.bmp'><img style='border: 5px solid #ffffff;  padding-left:15px;' src='stim/b/orangey_field.jpg'>","null","html-keyboard-response","52","46611","0.0-12.0-2.1","","","","","","","","","","","","","","","","","","","","",""
"null","<img style='width:200px; height:200px; margin-left: 95px; margin-right: 95px;' src='stim/fixation.png'>","null","html-keyboard-response","53","47617","0.0-12.0-0.2","","","","","","","","","","","","","","","","","","","","",""
"370.6349999993108","<img src='stim/b/water_pines_distantMountains.jpg'><img style='width:200px; height:200px; margin-bottom: 0px;' src='stim/fixation.png'><img src='stim/b/water_fall_images.jpg'>","48","html-keyboard-response","54","47989","0.0-12.0-1.2","training","ef","0.9","invalid","10","e","avoid:lose","48","water_pines_distantMountains.jpg","water_fall_images.jpg","water_fall_images.jpg","GUID","20892881","20","10/05/2020","12","M","-9","1","1","loselose.bmp"
"null","<img style='border: 5px solid #ffffff; padding-right:15px;' src='stim/b/water_pines_distantMountains.jpg'><img style='width:150px; height:150px; padding-right: 50px; padding-left: 50px; margin-bottom: 50px;' src='stim/loselose.bmp'><img style='border: 5px solid #808080;'src='stim/b/water_fall_images.jpg'>","null","html-keyboard-response","55","48992","0.0-12.0-2.2","","","","","","","","","","","","","","","","","","","","",""
"null","<img style='width:200px; height:200px; margin-left: 95px; margin-right: 95px;' src='stim/fixation.png'>","null","html-keyboard-response","56","49996","0.0-12.0-0.3","","","","","","","","","","","","","","","","","","","","",""
"681.5949999945587","<img src='stim/b/3d-landscape-background-10.jpg'><img style='width:200px; height:200px; margin-bottom: 0px;' src='stim/fixation.png'><img src='stim/b/2822landscape.jpg'>","48","html-keyboard-response","57","50678","0.0-12.0-1.3","training","ab","0.9","valid","10","a","win:stay","49","3d-landscape-background-10.jpg","2822landscape.jpg","3d-landscape-background-10.jpg","GUID","20892881","20","10/05/2020","12","M","-8","1","0","not_winner.png"
"null","<img style='border: 5px solid #ffffff; padding-right:15px;' src='stim/b/3d-landscape-background-10.jpg'><img style='width:150px; height:150px; padding-right: 50px; padding-left: 50px; margin-bottom: 50px;' src='stim/not_winner.png'><img style='border: 5px solid #808080;'src='stim/b/2822landscape.jpg'>","null","html-keyboard-response","58","51680","0.0-12.0-2.3","","","","","","","","","","","","","","","","","","","","",""
"null","<img style='width:200px; height:200px; margin-left: 95px; margin-right: 95px;' src='stim/fixation.png'>","null","html-keyboard-response","59","52686","0.0-12.0-0.4","","","","","","","","","","","","","","","","","","","","",""
"410.6850000025588","<img src='stim/b/water_pines_distantMountains.jpg'><img style='width:200px; height:200px; margin-bottom: 0px;' src='stim/fixation.png'><img src='stim/b/water_fall_images.jpg'>","48","html-keyboard-response","60","53098","0.0-12.0-1.4","training","ef","0.9","valid","10","e","avoid:lose","48","water_pines_distantMountains.jpg","water_fall_images.jpg","water_fall_images.jpg","GUID","20892881","20","10/05/2020","12","M","-7","1","1","keep_money.png"
"null","<img style='border: 5px solid #ffffff; padding-right:15px;' src='stim/b/water_pines_distantMountains.jpg'><img style='width:150px; height:150px; padding-right: 50px; padding-left: 50px; margin-bottom: 50px;' src='stim/keep_money.png'><img style='border: 5px solid #808080;'src='stim/b/water_fall_images.jpg'>","null","html-keyboard-response","61","54103","0.0-12.0-2.4","","","","","","","","","","","","","","","","","","","","",""
"null","<img style='width:200px; height:200px; margin-left: 95px; margin-right: 95px;' src='stim/fixation.png'>","null","html-keyboard-response","62","55109","0.0-12.0-0.5","","","","","","","","","","","","","","","","","","","","",""
"207.37999999983003","<img src='stim/b/orangey_field.jpg'><img style='width:200px; height:200px; margin-bottom: 0px;' src='stim/fixation.png'><img src='stim/b/lsingeltree_tallergrass_clouds.jpg'>","49","html-keyboard-response","63","55317","0.0-12.0-1.5","training","cd","0.8","valid","10","c","win:stay","48","orangey_field.jpg","lsingeltree_tallergrass_clouds.jpg","lsingeltree_tallergrass_clouds.jpg","GUID","20892881","20","10/05/2020","12","M","-6","1","0","not_winner.png"
"null","<img style='border: 5px solid #808080;' src='stim/b/orangey_field.jpg'><img style='width:150px; height:150px; padding-right: 50px; padding-left: 50px; margin-bottom: 50px;' src='stim/not_winner.png'><img style='border: 5px solid #ffffff;  padding-left:15px;' src='stim/b/lsingeltree_tallergrass_clouds.jpg'>","null","html-keyboard-response","64","56321","0.0-12.0-2.5","","","","","","","","","","","","","","","","","","","","",""
"null","<img style='width:200px; height:200px; margin-left: 95px; margin-right: 95px;' src='stim/fixation.png'>","null","html-keyboard-response","65","57328","0.0-12.0-0.6","","","","","","","","","","","","","","","","","","","","",""
"333.61000000149943","<img src='stim/b/2822landscape.jpg'><img style='width:200px; height:200px; margin-bottom: 0px;' src='stim/fixation.png'><img src='stim/b/3d-landscape-background-10.jpg'>","48","html-keyboard-response","66","57663","0.0-12.0-1.6","training","ab","0.9","invalid","10","a","win:stay","48","2822landscape.jpg","3d-landscape-background-10.jpg","3d-landscape-background-10.jpg","GUID","20892881","20","10/05/2020","12","M","-5","1","1","not_winner.png"
"null","<img style='border: 5px solid #ffffff; padding-right:15px;' src='stim/b/2822landscape.jpg'><img style='width:150px; height:150px; padding-right: 50px; padding-left: 50px; margin-bottom: 50px;' src='stim/not_winner.png'><img style='border: 5px solid #808080;'src='stim/b/3d-landscape-background-10.jpg'>","null","html-keyboard-response","67","58667","0.0-12.0-2.6","","","","","","","","","","","","","","","","","","","","",""
"null","<img style='width:200px; height:200px; margin-left: 95px; margin-right: 95px;' src='stim/fixation.png'>","null","html-keyboard-response","68","59671","0.0-12.0-0.7","","","","","","","","","","","","","","","","","","","","",""
"197.86500000191154","<img src='stim/b/waterfall_waterBelow.jpg'><img style='width:200px; height:200px; margin-bottom: 0px;' src='stim/fixation.png'><img src='stim/b/water_pines_snowy_moutain.jpg'>","49","html-keyboard-response","69","59871","0.0-12.0-1.7","training","gh","0.8","valid","10","g","avoid:lose","48","waterfall_waterBelow.jpg","water_pines_snowy_moutain.jpg","water_pines_snowy_moutain.jpg","GUID","20892881","20","10/05/2020","12","M","-4","1","0","loselose.bmp"
"null","<img style='border: 5px solid #808080;' src='stim/b/waterfall_waterBelow.jpg'><img style='width:150px; height:150px; padding-right: 50px; padding-left: 50px; margin-bottom: 50px;' src='stim/loselose.bmp'><img style='border: 5px solid #ffffff;  padding-left:15px;' src='stim/b/water_pines_snowy_moutain.jpg'>","null","html-keyboard-response","70","60873","0.0-12.0-2.7","","","","","","","","","","","","","","","","","","","","",""
"null","<img style='width:200px; height:200px; margin-left: 95px; margin-right: 95px;' src='stim/fixation.png'>","null","html-keyboard-response","71","61879","0.0-12.0-0.8","","","","","","","","","","","","","","","","","","","","",""
"342.80500000022585","<img src='stim/b/2822landscape.jpg'><img style='width:200px; height:200px; margin-bottom: 0px;' src='stim/fixation.png'><img src='stim/b/3d-landscape-background-10.jpg'>","49","html-keyboard-response","72","62223","0.0-12.0-1.8","training","ab","0.9","valid","10","a","win:stay","48","2822landscape.jpg","3d-landscape-background-10.jpg","3d-landscape-background-10.jpg","GUID","20892881","20","10/05/2020","12","M","-3","1","0","not_winner.png"
"null","<img style='border: 5px solid #808080;' src='stim/b/2822landscape.jpg'><img style='width:150px; height:150px; padding-right: 50px; padding-left: 50px; margin-bottom: 50px;' src='stim/not_winner.png'><img style='border: 5px solid #ffffff;  padding-left:15px;' src='stim/b/3d-landscape-background-10.jpg'>","null","html-keyboard-response","73","63228","0.0-12.0-2.8","","","","","","","","","","","","","","","","","","","","",""
"null","<img style='width:200px; height:200px; margin-left: 95px; margin-right: 95px;' src='stim/fixation.png'>","null","html-keyboard-response","74","64232","0.0-12.0-0.9","","","","","","","","","","","","","","","","","","","","",""
"405.5549999975483","<img src='stim/b/water_fall_images.jpg'><img style='width:200px; height:200px; margin-bottom: 0px;' src='stim/fixation.png'><img src='stim/b/water_pines_distantMountains.jpg'>","49","html-keyboard-response","75","64639","0.0-12.0-1.9","training","ef","0.9","valid","10","e","avoid:lose","49","water_fall_images.jpg","water_pines_distantMountains.jpg","water_fall_images.jpg","GUID","20892881","20","10/05/2020","12","M","-2","1","1","keep_money.png"
"null","<img style='border: 5px solid #808080;' src='stim/b/water_fall_images.jpg'><img style='width:150px; height:150px; padding-right: 50px; padding-left: 50px; margin-bottom: 50px;' src='stim/keep_money.png'><img style='border: 5px solid #ffffff;  padding-left:15px;' src='stim/b/water_pines_distantMountains.jpg'>","null","html-keyboard-response","76","65640","0.0-12.0-2.9","","","","","","","","","","","","","","","","","","","","",""
"null","<img style='width:200px; height:200px; margin-left: 95px; margin-right: 95px;' src='stim/fixation.png'>","null","html-keyboard-response","77","66643","0.0-12.0-0.10","","","","","","","","","","","","","","","","","","","","",""
"223.56500000023516","<img src='stim/b/water_pines_snowy_moutain.jpg'><img style='width:200px; height:200px; margin-bottom: 0px;' src='stim/fixation.png'><img src='stim/b/waterfall_waterBelow.jpg'>","49","html-keyboard-response","78","66867","0.0-12.0-1.10","training","gh","0.8","valid","10","g","avoid:lose","49","waterfall_waterBelow.jpg","water_pines_snowy_moutain.jpg","water_pines_snowy_moutain.jpg","GUID","20892881","20","10/05/2020","12","M","-1","1","1","keep_money.png"
"null","<img style='border: 5px solid #808080;' src='stim/b/water_pines_snowy_moutain.jpg'><img style='width:150px; height:150px; padding-right: 50px; padding-left: 50px; margin-bottom: 50px;' src='stim/keep_money.png'><img style='border: 5px solid #ffffff;  padding-left:15px;' src='stim/b/waterfall_waterBelow.jpg'>","null","html-keyboard-response","79","67869","0.0-12.0-2.10","","","","","","","","","","","","","","","","","","","","",""
"null","<img style='width:200px; height:200px; margin-left: 95px; margin-right: 95px;' src='stim/fixation.png'>","null","html-keyboard-response","80","68874","0.0-12.0-0.11","","","","","","","","","","","","","","","","","","","","",""
"284.2449999952805","<img src='stim/b/lsingeltree_tallergrass_clouds.jpg'><img style='width:200px; height:200px; margin-bottom: 0px;' src='stim/fixation.png'><img src='stim/b/orangey_field.jpg'>","49","html-keyboard-response","81","69159","0.0-12.0-1.11","training","cd","0.8","valid","10","c","win:stay","49","lsingeltree_tallergrass_clouds.jpg","orangey_field.jpg","lsingeltree_tallergrass_clouds.jpg","GUID","20892881","20","10/05/2020","12","M","0","1","1","winwin.bmp"
"null","<img style='border: 5px solid #808080;' src='stim/b/lsingeltree_tallergrass_clouds.jpg'><img style='width:150px; height:150px; padding-right: 50px; padding-left: 50px; margin-bottom: 50px;' src='stim/winwin.bmp'><img style='border: 5px solid #ffffff;  padding-left:15px;' src='stim/b/orangey_field.jpg'>","null","html-keyboard-response","82","70163","0.0-12.0-2.11","","","","","","","","","","","","","","","","","","","","",""
"null","<img style='width:200px; height:200px; margin-left: 95px; margin-right: 95px;' src='stim/fixation.png'>","null","html-keyboard-response","83","71169","0.0-12.0-0.12","","","","","","","","","","","","","","","","","","","","",""
"262.3749999984284","<img src='stim/b/3d-landscape-background-10.jpg'><img style='width:200px; height:200px; margin-bottom: 0px;' src='stim/fixation.png'><img src='stim/b/2822landscape.jpg'>","49","html-keyboard-response","84","71433","0.0-12.0-1.12","training","ab","0.9","valid","10","a","win:stay","49","3d-landscape-background-10.jpg","2822landscape.jpg","3d-landscape-background-10.jpg","GUID","20892881","20","10/05/2020","12","M","1","1","1","winwin.bmp"
"null","<img style='border: 5px solid #808080;' src='stim/b/3d-landscape-background-10.jpg'><img style='width:150px; height:150px; padding-right: 50px; padding-left: 50px; margin-bottom: 50px;' src='stim/winwin.bmp'><img style='border: 5px solid #ffffff;  padding-left:15px;' src='stim/b/2822landscape.jpg'>","null","html-keyboard-response","85","72438","0.0-12.0-2.12","","","","","","","","","","","","","","","","","","","","",""
"null","<img style='width:200px; height:200px; margin-left: 95px; margin-right: 95px;' src='stim/fixation.png'>","null","html-keyboard-response","86","73440","0.0-12.0-0.13","","","","","","","","","","","","","","","","","","","","",""
"426.37500000273576","<img src='stim/b/water_fall_images.jpg'><img style='width:200px; height:200px; margin-bottom: 0px;' src='stim/fixation.png'><img src='stim/b/water_pines_distantMountains.jpg'>","49","html-keyboard-response","87","73867","0.0-12.0-1.13","training","ef","0.9","valid","10","e","avoid:lose","49","water_fall_images.jpg","water_pines_distantMountains.jpg","water_fall_images.jpg","GUID","20892881","20","10/05/2020","12","M","2","1","1","keep_money.png"
"null","<img style='border: 5px solid #808080;' src='stim/b/water_fall_images.jpg'><img style='width:150px; height:150px; padding-right: 50px; padding-left: 50px; margin-bottom: 50px;' src='stim/keep_money.png'><img style='border: 5px solid #ffffff;  padding-left:15px;' src='stim/b/water_pines_distantMountains.jpg'>","null","html-keyboard-response","88","74872","0.0-12.0-2.13","","","","","","","","","","","","","","","","","","","","",""
"null","<img style='width:200px; height:200px; margin-left: 95px; margin-right: 95px;' src='stim/fixation.png'>","null","html-keyboard-response","89","75877","0.0-12.0-0.14","","","","","","","","","","","","","","","","","","","","",""
"375.1799999954528","<img src='stim/b/lsingeltree_tallergrass_clouds.jpg'><img style='width:200px; height:200px; margin-bottom: 0px;' src='stim/fixation.png'><img src='stim/b/orangey_field.jpg'>","49","html-keyboard-response","90","76253","0.0-12.0-1.14","training","cd","0.8","valid","10","c","win:stay","49","lsingeltree_tallergrass_clouds.jpg","orangey_field.jpg","lsingeltree_tallergrass_clouds.jpg","GUID","20892881","20","10/05/2020","12","M","3","1","1","winwin.bmp"
"null","<img style='border: 5px solid #808080;' src='stim/b/lsingeltree_tallergrass_clouds.jpg'><img style='width:150px; height:150px; padding-right: 50px; padding-left: 50px; margin-bottom: 50px;' src='stim/winwin.bmp'><img style='border: 5px solid #ffffff;  padding-left:15px;' src='stim/b/orangey_field.jpg'>","null","html-keyboard-response","91","77259","0.0-12.0-2.14","","","","","","","","","","","","","","","","","","","","",""
"null","<img style='width:200px; height:200px; margin-left: 95px; margin-right: 95px;' src='stim/fixation.png'>","null","html-keyboard-response","92","78264","0.0-12.0-0.15","","","","","","","","","","","","","","","","","","","","",""
"194.9049999966519","<img src='stim/b/water_pines_snowy_moutain.jpg'><img style='width:200px; height:200px; margin-bottom: 0px;' src='stim/fixation.png'><img src='stim/b/waterfall_waterBelow.jpg'>","48","html-keyboard-response","93","78460","0.0-12.0-1.15","training","gh","0.8","valid","10","g","avoid:lose","49","waterfall_waterBelow.jpg","water_pines_snowy_moutain.jpg","water_pines_snowy_moutain.jpg","GUID","20892881","20","10/05/2020","12","M","4","1","0","loselose.bmp"
"null","<img style='border: 5px solid #ffffff; padding-right:15px;' src='stim/b/water_pines_snowy_moutain.jpg'><img style='width:150px; height:150px; padding-right: 50px; padding-left: 50px; margin-bottom: 50px;' src='stim/loselose.bmp'><img style='border: 5px solid #808080;'src='stim/b/waterfall_waterBelow.jpg'>","null","html-keyboard-response","94","79464","0.0-12.0-2.15","","","","","","","","","","","","","","","","","","","","",""
"null","<img style='width:200px; height:200px; margin-left: 95px; margin-right: 95px;' src='stim/fixation.png'>","null","html-keyboard-response","95","80469","0.0-12.0-0.16","","","","","","","","","","","","","","","","","","","","",""
"318.2900000028894","<img src='stim/b/water_fall_images.jpg'><img style='width:200px; height:200px; margin-bottom: 0px;' src='stim/fixation.png'><img src='stim/b/water_pines_distantMountains.jpg'>","48","html-keyboard-response","96","80789","0.0-12.0-1.16","training","ef","0.9","valid","10","e","avoid:lose","49","water_fall_images.jpg","water_pines_distantMountains.jpg","water_fall_images.jpg","GUID","20892881","20","10/05/2020","12","M","5","1","0","loselose.bmp"
"null","<img style='border: 5px solid #ffffff; padding-right:15px;' src='stim/b/water_fall_images.jpg'><img style='width:150px; height:150px; padding-right: 50px; padding-left: 50px; margin-bottom: 50px;' src='stim/loselose.bmp'><img style='border: 5px solid #808080;'src='stim/b/water_pines_distantMountains.jpg'>","null","html-keyboard-response","97","81792","0.0-12.0-2.16","","","","","","","","","","","","","","","","","","","","",""
"null","<img style='width:200px; height:200px; margin-left: 95px; margin-right: 95px;' src='stim/fixation.png'>","null","html-keyboard-response","98","82798","0.0-12.0-0.17","","","","","","","","","","","","","","","","","","","","",""
"695.3649999995832","<img src='stim/b/2822landscape.jpg'><img style='width:200px; height:200px; margin-bottom: 0px;' src='stim/fixation.png'><img src='stim/b/3d-landscape-background-10.jpg'>","48","html-keyboard-response","99","83495","0.0-12.0-1.17","training","ab","0.9","valid","10","a","win:stay","48","2822landscape.jpg","3d-landscape-background-10.jpg","3d-landscape-background-10.jpg","GUID","20892881","20","10/05/2020","12","M","6","1","1","winwin.bmp"
"null","<img style='border: 5px solid #ffffff; padding-right:15px;' src='stim/b/2822landscape.jpg'><img style='width:150px; height:150px; padding-right: 50px; padding-left: 50px; margin-bottom: 50px;' src='stim/winwin.bmp'><img style='border: 5px solid #808080;'src='stim/b/3d-landscape-background-10.jpg'>","null","html-keyboard-response","100","84499","0.0-12.0-2.17","","","","","","","","","","","","","","","","","","","","",""
"null","<img style='width:200px; height:200px; margin-left: 95px; margin-right: 95px;' src='stim/fixation.png'>","null","html-keyboard-response","101","85503","0.0-12.0-0.18","","","","","","","","","","","","","","","","","","","","",""
"336.8849999969825","<img src='stim/b/waterfall_waterBelow.jpg'><img style='width:200px; height:200px; margin-bottom: 0px;' src='stim/fixation.png'><img src='stim/b/water_pines_snowy_moutain.jpg'>","48","html-keyboard-response","102","85841","0.0-12.0-1.18","training","gh","0.8","valid","10","g","avoid:lose","48","waterfall_waterBelow.jpg","water_pines_snowy_moutain.jpg","water_pines_snowy_moutain.jpg","GUID","20892881","20","10/05/2020","12","M","7","1","1","keep_money.png"
"null","<img style='border: 5px solid #ffffff; padding-right:15px;' src='stim/b/waterfall_waterBelow.jpg'><img style='width:150px; height:150px; padding-right: 50px; padding-left: 50px; margin-bottom: 50px;' src='stim/keep_money.png'><img style='border: 5px solid #808080;'src='stim/b/water_pines_snowy_moutain.jpg'>","null","html-keyboard-response","103","86843","0.0-12.0-2.18","","","","","","","","","","","","","","","","","","","","",""
"null","<img style='width:200px; height:200px; margin-left: 95px; margin-right: 95px;' src='stim/fixation.png'>","null","html-keyboard-response","104","87848","0.0-12.0-0.19","","","","","","","","","","","","","","","","","","","","",""
"363.1699999968987","<img src='stim/b/lsingeltree_tallergrass_clouds.jpg'><img style='width:200px; height:200px; margin-bottom: 0px;' src='stim/fixation.png'><img src='stim/b/orangey_field.jpg'>","48","html-keyboard-response","105","88212","0.0-12.0-1.19","training","cd","0.8","valid","10","c","win:stay","49","lsingeltree_tallergrass_clouds.jpg","orangey_field.jpg","lsingeltree_tallergrass_clouds.jpg","GUID","20892881","20","10/05/2020","12","M","8","1","0","not_winner.png"
"null","<img style='border: 5px solid #ffffff; padding-right:15px;' src='stim/b/lsingeltree_tallergrass_clouds.jpg'><img style='width:150px; height:150px; padding-right: 50px; padding-left: 50px; margin-bottom: 50px;' src='stim/not_winner.png'><img style='border: 5px solid #808080;'src='stim/b/orangey_field.jpg'>","null","html-keyboard-response","106","89217","0.0-12.0-2.19","","","","","","","","","","","","","","","","","","","","",""
"null","<img style='width:200px; height:200px; margin-left: 95px; margin-right: 95px;' src='stim/fixation.png'>","null","html-keyboard-response","107","90223","0.0-12.0-0.20","","","","","","","","","","","","","","","","","","","","",""
"329.2100000035134","<img src='stim/b/2822landscape.jpg'><img style='width:200px; height:200px; margin-bottom: 0px;' src='stim/fixation.png'><img src='stim/b/3d-landscape-background-10.jpg'>","48","html-keyboard-response","108","90554","0.0-12.0-1.20","training","ab","0.9","valid","10","a","win:stay","48","2822landscape.jpg","3d-landscape-background-10.jpg","3d-landscape-background-10.jpg","GUID","20892881","20","10/05/2020","12","M","9","1","1","winwin.bmp"
"null","<img style='border: 5px solid #ffffff; padding-right:15px;' src='stim/b/2822landscape.jpg'><img style='width:150px; height:150px; padding-right: 50px; padding-left: 50px; margin-bottom: 50px;' src='stim/winwin.bmp'><img style='border: 5px solid #808080;'src='stim/b/3d-landscape-background-10.jpg'>","null","html-keyboard-response","109","91557","0.0-12.0-2.20","","","","","","","","","","","","","","","","","","","","",""
"null","<img style='width:200px; height:200px; margin-left: 95px; margin-right: 95px;' src='stim/fixation.png'>","null","html-keyboard-response","110","92559","0.0-12.0-0.21","","","","","","","","","","","","","","","","","","","","",""
"526.2899999943329","<img src='stim/b/lsingeltree_tallergrass_clouds.jpg'><img style='width:200px; height:200px; margin-bottom: 0px;' src='stim/fixation.png'><img src='stim/b/orangey_field.jpg'>","48","html-keyboard-response","111","93086","0.0-12.0-1.21","training","cd","0.8","valid","10","c","win:stay","49","lsingeltree_tallergrass_clouds.jpg","orangey_field.jpg","lsingeltree_tallergrass_clouds.jpg","GUID","20892881","20","10/05/2020","12","M","10","1","0","not_winner.png"
"null","<img style='border: 5px solid #ffffff; padding-right:15px;' src='stim/b/lsingeltree_tallergrass_clouds.jpg'><img style='width:150px; height:150px; padding-right: 50px; padding-left: 50px; margin-bottom: 50px;' src='stim/not_winner.png'><img style='border: 5px solid #808080;'src='stim/b/orangey_field.jpg'>","null","html-keyboard-response","112","94091","0.0-12.0-2.21","","","","","","","","","","","","","","","","","","","","",""
"null","<img style='width:200px; height:200px; margin-left: 95px; margin-right: 95px;' src='stim/fixation.png'>","null","html-keyboard-response","113","95093","0.0-12.0-0.22","","","","","","","","","","","","","","","","","","","","",""
"451.9250000012107","<img src='stim/b/water_pines_snowy_moutain.jpg'><img style='width:200px; height:200px; margin-bottom: 0px;' src='stim/fixation.png'><img src='stim/b/waterfall_waterBelow.jpg'>","48","html-keyboard-response","114","95546","0.0-12.0-1.22","training","gh","0.8","valid","10","g","avoid:lose","49","waterfall_waterBelow.jpg","water_pines_snowy_moutain.jpg","water_pines_snowy_moutain.jpg","GUID","20892881","20","10/05/2020","12","M","11","1","0","loselose.bmp"
"null","<img style='border: 5px solid #ffffff; padding-right:15px;' src='stim/b/water_pines_snowy_moutain.jpg'><img style='width:150px; height:150px; padding-right: 50px; padding-left: 50px; margin-bottom: 50px;' src='stim/loselose.bmp'><img style='border: 5px solid #808080;'src='stim/b/waterfall_waterBelow.jpg'>","null","html-keyboard-response","115","96550","0.0-12.0-2.22","","","","","","","","","","","","","","","","","","","","",""
"null","<img style='width:200px; height:200px; margin-left: 95px; margin-right: 95px;' src='stim/fixation.png'>","null","html-keyboard-response","116","97555","0.0-12.0-0.23","","","","","","","","","","","","","","","","","","","","",""
"626.8249999993714","<img src='stim/b/water_pines_distantMountains.jpg'><img style='width:200px; height:200px; margin-bottom: 0px;' src='stim/fixation.png'><img src='stim/b/water_fall_images.jpg'>","49","html-keyboard-response","117","98183","0.0-12.0-1.23","training","ef","0.9","valid","10","e","avoid:lose","48","water_pines_distantMountains.jpg","water_fall_images.jpg","water_fall_images.jpg","GUID","20892881","20","10/05/2020","12","M","12","1","0","loselose.bmp"
"null","<img style='border: 5px solid #808080;' src='stim/b/water_pines_distantMountains.jpg'><img style='width:150px; height:150px; padding-right: 50px; padding-left: 50px; margin-bottom: 50px;' src='stim/loselose.bmp'><img style='border: 5px solid #ffffff;  padding-left:15px;' src='stim/b/water_fall_images.jpg'>","null","html-keyboard-response","118","99186","0.0-12.0-2.23","","","","","","","","","","","","","","","","","","","","",""
"null","<img style='width:200px; height:200px; margin-left: 95px; margin-right: 95px;' src='stim/fixation.png'>","null","html-keyboard-response","119","100191","0.0-12.0-0.24","","","","","","","","","","","","","","","","","","","","",""
"239.60000000079162","<img src='stim/b/water_pines_snowy_moutain.jpg'><img style='width:200px; height:200px; margin-bottom: 0px;' src='stim/fixation.png'><img src='stim/b/waterfall_waterBelow.jpg'>","48","html-keyboard-response","120","100432","0.0-12.0-1.24","training","gh","0.8","valid","10","g","avoid:lose","49","waterfall_waterBelow.jpg","water_pines_snowy_moutain.jpg","water_pines_snowy_moutain.jpg","GUID","20892881","20","10/05/2020","12","M","13","1","0","loselose.bmp"
"null","<img style='border: 5px solid #ffffff; padding-right:15px;' src='stim/b/water_pines_snowy_moutain.jpg'><img style='width:150px; height:150px; padding-right: 50px; padding-left: 50px; margin-bottom: 50px;' src='stim/loselose.bmp'><img style='border: 5px solid #808080;'src='stim/b/waterfall_waterBelow.jpg'>","null","html-keyboard-response","121","101434","0.0-12.0-2.24","","","","","","","","","","","","","","","","","","","","",""
"null","<img style='width:200px; height:200px; margin-left: 95px; margin-right: 95px;' src='stim/fixation.png'>","null","html-keyboard-response","122","102440","0.0-12.0-0.25","","","","","","","","","","","","","","","","","","","","",""
"298.92000000108965","<img src='stim/b/water_pines_distantMountains.jpg'><img style='width:200px; height:200px; margin-bottom: 0px;' src='stim/fixation.png'><img src='stim/b/water_fall_images.jpg'>","48","html-keyboard-response","123","102740","0.0-12.0-1.25","training","ef","0.9","valid","10","e","avoid:lose","48","water_pines_distantMountains.jpg","water_fall_images.jpg","water_fall_images.jpg","GUID","20892881","20","10/05/2020","12","M","14","1","1","keep_money.png"
"null","<img style='border: 5px solid #ffffff; padding-right:15px;' src='stim/b/water_pines_distantMountains.jpg'><img style='width:150px; height:150px; padding-right: 50px; padding-left: 50px; margin-bottom: 50px;' src='stim/keep_money.png'><img style='border: 5px solid #808080;'src='stim/b/water_fall_images.jpg'>","null","html-keyboard-response","124","103742","0.0-12.0-2.25","","","","","","","","","","","","","","","","","","","","",""
"null","<img style='width:200px; height:200px; margin-left: 95px; margin-right: 95px;' src='stim/fixation.png'>","null","html-keyboard-response","125","104748","0.0-12.0-0.26","","","","","","","","","","","","","","","","","","","","",""
"359.66000000189524","<img src='stim/b/2822landscape.jpg'><img style='width:200px; height:200px; margin-bottom: 0px;' src='stim/fixation.png'><img src='stim/b/3d-landscape-background-10.jpg'>","48","html-keyboard-response","126","105108","0.0-12.0-1.26","training","ab","0.9","valid","10","a","win:stay","48","2822landscape.jpg","3d-landscape-background-10.jpg","3d-landscape-background-10.jpg","GUID","20892881","20","10/05/2020","12","M","15","1","1","winwin.bmp"
"null","<img style='border: 5px solid #ffffff; padding-right:15px;' src='stim/b/2822landscape.jpg'><img style='width:150px; height:150px; padding-right: 50px; padding-left: 50px; margin-bottom: 50px;' src='stim/winwin.bmp'><img style='border: 5px solid #808080;'src='stim/b/3d-landscape-background-10.jpg'>","null","html-keyboard-response","127","106112","0.0-12.0-2.26","","","","","","","","","","","","","","","","","","","","",""
"null","<img style='width:200px; height:200px; margin-left: 95px; margin-right: 95px;' src='stim/fixation.png'>","null","html-keyboard-response","128","107114","0.0-12.0-0.27","","","","","","","","","","","","","","","","","","","","",""
"291.12999999779277","<img src='stim/b/orangey_field.jpg'><img style='width:200px; height:200px; margin-bottom: 0px;' src='stim/fixation.png'><img src='stim/b/lsingeltree_tallergrass_clouds.jpg'>","48","html-keyboard-response","129","107406","0.0-12.0-1.27","training","cd","0.8","invalid","10","c","win:stay","48","orangey_field.jpg","lsingeltree_tallergrass_clouds.jpg","lsingeltree_tallergrass_clouds.jpg","GUID","20892881","20","10/05/2020","12","M","16","1","1","not_winner.png"
"null","<img style='border: 5px solid #ffffff; padding-right:15px;' src='stim/b/orangey_field.jpg'><img style='width:150px; height:150px; padding-right: 50px; padding-left: 50px; margin-bottom: 50px;' src='stim/not_winner.png'><img style='border: 5px solid #808080;'src='stim/b/lsingeltree_tallergrass_clouds.jpg'>","null","html-keyboard-response","130","108411","0.0-12.0-2.27","","","","","","","","","","","","","","","","","","","","",""
"null","<img style='width:200px; height:200px; margin-left: 95px; margin-right: 95px;' src='stim/fixation.png'>","null","html-keyboard-response","131","109416","0.0-12.0-0.28","","","","","","","","","","","","","","","","","","","","",""
"307.4400000041351","<img src='stim/b/water_fall_images.jpg'><img style='width:200px; height:200px; margin-bottom: 0px;' src='stim/fixation.png'><img src='stim/b/water_pines_distantMountains.jpg'>","48","html-keyboard-response","132","109725","0.0-12.0-1.28","training","ef","0.9","valid","10","e","avoid:lose","49","water_fall_images.jpg","water_pines_distantMountains.jpg","water_fall_images.jpg","GUID","20892881","20","10/05/2020","12","M","17","1","0","loselose.bmp"
"null","<img style='border: 5px solid #ffffff; padding-right:15px;' src='stim/b/water_fall_images.jpg'><img style='width:150px; height:150px; padding-right: 50px; padding-left: 50px; margin-bottom: 50px;' src='stim/loselose.bmp'><img style='border: 5px solid #808080;'src='stim/b/water_pines_distantMountains.jpg'>","null","html-keyboard-response","133","110729","0.0-12.0-2.28","","","","","","","","","","","","","","","","","","","","",""
"null","<img style='width:200px; height:200px; margin-left: 95px; margin-right: 95px;' src='stim/fixation.png'>","null","html-keyboard-response","134","111735","0.0-12.0-0.29","","","","","","","","","","","","","","","","","","","","",""
"262.4950000026729","<img src='stim/b/waterfall_waterBelow.jpg'><img style='width:200px; height:200px; margin-bottom: 0px;' src='stim/fixation.png'><img src='stim/b/water_pines_snowy_moutain.jpg'>","48","html-keyboard-response","135","111998","0.0-12.0-1.29","training","gh","0.8","invalid","10","g","avoid:lose","48","waterfall_waterBelow.jpg","water_pines_snowy_moutain.jpg","water_pines_snowy_moutain.jpg","GUID","20892881","20","10/05/2020","12","M","18","1","1","loselose.bmp"
"null","<img style='border: 5px solid #ffffff; padding-right:15px;' src='stim/b/waterfall_waterBelow.jpg'><img style='width:150px; height:150px; padding-right: 50px; padding-left: 50px; margin-bottom: 50px;' src='stim/loselose.bmp'><img style='border: 5px solid #808080;'src='stim/b/water_pines_snowy_moutain.jpg'>","null","html-keyboard-response","136","113003","0.0-12.0-2.29","","","","","","","","","","","","","","","","","","","","",""
"null","<img style='width:200px; height:200px; margin-left: 95px; margin-right: 95px;' src='stim/fixation.png'>","null","html-keyboard-response","137","114007","0.0-12.0-0.30","","","","","","","","","","","","","","","","","","","","",""
"258.94500000140397","<img src='stim/b/3d-landscape-background-10.jpg'><img style='width:200px; height:200px; margin-bottom: 0px;' src='stim/fixation.png'><img src='stim/b/2822landscape.jpg'>","48","html-keyboard-response","138","114266","0.0-12.0-1.30","training","ab","0.9","valid","10","a","win:stay","49","3d-landscape-background-10.jpg","2822landscape.jpg","3d-landscape-background-10.jpg","GUID","20892881","20","10/05/2020","12","M","19","1","0","not_winner.png"
"null","<img style='border: 5px solid #ffffff; padding-right:15px;' src='stim/b/3d-landscape-background-10.jpg'><img style='width:150px; height:150px; padding-right: 50px; padding-left: 50px; margin-bottom: 50px;' src='stim/not_winner.png'><img style='border: 5px solid #808080;'src='stim/b/2822landscape.jpg'>","null","html-keyboard-response","139","115269","0.0-12.0-2.30","","","","","","","","","","","","","","","","","","","","",""
"null","<img style='width:200px; height:200px; margin-left: 95px; margin-right: 95px;' src='stim/fixation.png'>","null","html-keyboard-response","140","116274","0.0-12.0-0.31","","","","","","","","","","","","","","","","","","","","",""
"292.5600000016857","<img src='stim/b/orangey_field.jpg'><img style='width:200px; height:200px; margin-bottom: 0px;' src='stim/fixation.png'><img src='stim/b/lsingeltree_tallergrass_clouds.jpg'>","49","html-keyboard-response","141","116568","0.0-12.0-1.31","training","cd","0.8","valid","10","c","win:stay","48","orangey_field.jpg","lsingeltree_tallergrass_clouds.jpg","lsingeltree_tallergrass_clouds.jpg","GUID","20892881","20","10/05/2020","12","M","20","1","0","not_winner.png"
"null","<img style='border: 5px solid #808080;' src='stim/b/orangey_field.jpg'><img style='width:150px; height:150px; padding-right: 50px; padding-left: 50px; margin-bottom: 50px;' src='stim/not_winner.png'><img style='border: 5px solid #ffffff;  padding-left:15px;' src='stim/b/lsingeltree_tallergrass_clouds.jpg'>","null","html-keyboard-response","142","117569","0.0-12.0-2.31","","","","","","","","","","","","","","","","","","","","",""
"null","<img style='width:200px; height:200px; margin-left: 95px; margin-right: 95px;' src='stim/fixation.png'>","null","html-keyboard-response","143","118575","0.0-12.0-0.32","","","","","","","","","","","","","","","","","","","","",""
"642.3700000013923","<img src='stim/b/water_fall_images.jpg'><img style='width:200px; height:200px; margin-bottom: 0px;' src='stim/fixation.png'><img src='stim/b/water_pines_distantMountains.jpg'>","48","html-keyboard-response","144","119218","0.0-12.0-1.32","training","ef","0.9","valid","10","e","avoid:lose","49","water_fall_images.jpg","water_pines_distantMountains.jpg","water_fall_images.jpg","GUID","20892881","20","10/05/2020","12","M","21","1","0","loselose.bmp"
"null","<img style='border: 5px solid #ffffff; padding-right:15px;' src='stim/b/water_fall_images.jpg'><img style='width:150px; height:150px; padding-right: 50px; padding-left: 50px; margin-bottom: 50px;' src='stim/loselose.bmp'><img style='border: 5px solid #808080;'src='stim/b/water_pines_distantMountains.jpg'>","null","html-keyboard-response","145","120219","0.0-12.0-2.32","","","","","","","","","","","","","","","","","","","","",""
"null","<img style='width:200px; height:200px; margin-left: 95px; margin-right: 95px;' src='stim/fixation.png'>","null","html-keyboard-response","146","121225","0.0-12.0-0.33","","","","","","","","","","","","","","","","","","","","",""
"262.6499999969383","<img src='stim/b/3d-landscape-background-10.jpg'><img style='width:200px; height:200px; margin-bottom: 0px;' src='stim/fixation.png'><img src='stim/b/2822landscape.jpg'>","49","html-keyboard-response","147","121489","0.0-12.0-1.33","training","ab","0.9","valid","10","a","win:stay","49","3d-landscape-background-10.jpg","2822landscape.jpg","3d-landscape-background-10.jpg","GUID","20892881","20","10/05/2020","12","M","22","1","1","winwin.bmp"
"null","<img style='border: 5px solid #808080;' src='stim/b/3d-landscape-background-10.jpg'><img style='width:150px; height:150px; padding-right: 50px; padding-left: 50px; margin-bottom: 50px;' src='stim/winwin.bmp'><img style='border: 5px solid #ffffff;  padding-left:15px;' src='stim/b/2822landscape.jpg'>","null","html-keyboard-response","148","122490","0.0-12.0-2.33","","","","","","","","","","","","","","","","","","","","",""
"null","<img style='width:200px; height:200px; margin-left: 95px; margin-right: 95px;' src='stim/fixation.png'>","null","html-keyboard-response","149","123495","0.0-12.0-0.34","","","","","","","","","","","","","","","","","","","","",""
"328.815000000759","<img src='stim/b/waterfall_waterBelow.jpg'><img style='width:200px; height:200px; margin-bottom: 0px;' src='stim/fixation.png'><img src='stim/b/water_pines_snowy_moutain.jpg'>","48","html-keyboard-response","150","123825","0.0-12.0-1.34","training","gh","0.8","valid","10","g","avoid:lose","48","waterfall_waterBelow.jpg","water_pines_snowy_moutain.jpg","water_pines_snowy_moutain.jpg","GUID","20892881","20","10/05/2020","12","M","23","1","1","keep_money.png"
"null","<img style='border: 5px solid #ffffff; padding-right:15px;' src='stim/b/waterfall_waterBelow.jpg'><img style='width:150px; height:150px; padding-right: 50px; padding-left: 50px; margin-bottom: 50px;' src='stim/keep_money.png'><img style='border: 5px solid #808080;'src='stim/b/water_pines_snowy_moutain.jpg'>","null","html-keyboard-response","151","124830","0.0-12.0-2.34","","","","","","","","","","","","","","","","","","","","",""
"null","<img style='width:200px; height:200px; margin-left: 95px; margin-right: 95px;' src='stim/fixation.png'>","null","html-keyboard-response","152","125832","0.0-12.0-0.35","","","","","","","","","","","","","","","","","","","","",""
"246.40499999804888","<img src='stim/b/orangey_field.jpg'><img style='width:200px; height:200px; margin-bottom: 0px;' src='stim/fixation.png'><img src='stim/b/lsingeltree_tallergrass_clouds.jpg'>","49","html-keyboard-response","153","126080","0.0-12.0-1.35","training","cd","0.8","valid","10","c","win:stay","48","orangey_field.jpg","lsingeltree_tallergrass_clouds.jpg","lsingeltree_tallergrass_clouds.jpg","GUID","20892881","20","10/05/2020","12","M","24","1","0","not_winner.png"
"null","<img style='border: 5px solid #808080;' src='stim/b/orangey_field.jpg'><img style='width:150px; height:150px; padding-right: 50px; padding-left: 50px; margin-bottom: 50px;' src='stim/not_winner.png'><img style='border: 5px solid #ffffff;  padding-left:15px;' src='stim/b/lsingeltree_tallergrass_clouds.jpg'>","null","html-keyboard-response","154","127085","0.0-12.0-2.35","","","","","","","","","","","","","","","","","","","","",""
"null","<img style='width:200px; height:200px; margin-left: 95px; margin-right: 95px;' src='stim/fixation.png'>","null","html-keyboard-response","155","128091","0.0-12.0-0.36","","","","","","","","","","","","","","","","","","","","",""
"373.87000000308035","<img src='stim/b/water_pines_distantMountains.jpg'><img style='width:200px; height:200px; margin-bottom: 0px;' src='stim/fixation.png'><img src='stim/b/water_fall_images.jpg'>","48","html-keyboard-response","156","128466","0.0-12.0-1.36","training","ef","0.9","valid","10","e","avoid:lose","48","water_pines_distantMountains.jpg","water_fall_images.jpg","water_fall_images.jpg","GUID","20892881","20","10/05/2020","12","M","25","1","1","keep_money.png"
"null","<img style='border: 5px solid #ffffff; padding-right:15px;' src='stim/b/water_pines_distantMountains.jpg'><img style='width:150px; height:150px; padding-right: 50px; padding-left: 50px; margin-bottom: 50px;' src='stim/keep_money.png'><img style='border: 5px solid #808080;'src='stim/b/water_fall_images.jpg'>","null","html-keyboard-response","157","129469","0.0-12.0-2.36","","","","","","","","","","","","","","","","","","","","",""
"null","<img style='width:200px; height:200px; margin-left: 95px; margin-right: 95px;' src='stim/fixation.png'>","null","html-keyboard-response","158","130474","0.0-12.0-0.37","","","","","","","","","","","","","","","","","","","","",""
"205.3200000009383","<img src='stim/b/orangey_field.jpg'><img style='width:200px; height:200px; margin-bottom: 0px;' src='stim/fixation.png'><img src='stim/b/lsingeltree_tallergrass_clouds.jpg'>","48","html-keyboard-response","159","130680","0.0-12.0-1.37","training","cd","0.8","invalid","10","c","win:stay","48","orangey_field.jpg","lsingeltree_tallergrass_clouds.jpg","lsingeltree_tallergrass_clouds.jpg","GUID","20892881","20","10/05/2020","12","M","26","1","1","not_winner.png"
"null","<img style='border: 5px solid #ffffff; padding-right:15px;' src='stim/b/orangey_field.jpg'><img style='width:150px; height:150px; padding-right: 50px; padding-left: 50px; margin-bottom: 50px;' src='stim/not_winner.png'><img style='border: 5px solid #808080;'src='stim/b/lsingeltree_tallergrass_clouds.jpg'>","null","html-keyboard-response","160","131682","0.0-12.0-2.37","","","","","","","","","","","","","","","","","","","","",""
"null","<img style='width:200px; height:200px; margin-left: 95px; margin-right: 95px;' src='stim/fixation.png'>","null","html-keyboard-response","161","132688","0.0-12.0-0.38","","","","","","","","","","","","","","","","","","","","",""
"304.0949999995064","<img src='stim/b/water_pines_snowy_moutain.jpg'><img style='width:200px; height:200px; margin-bottom: 0px;' src='stim/fixation.png'><img src='stim/b/waterfall_waterBelow.jpg'>","49","html-keyboard-response","162","132993","0.0-12.0-1.38","training","gh","0.8","invalid","10","g","avoid:lose","49","waterfall_waterBelow.jpg","water_pines_snowy_moutain.jpg","water_pines_snowy_moutain.jpg","GUID","20892881","20","10/05/2020","12","M","27","1","1","loselose.bmp"
"null","<img style='border: 5px solid #808080;' src='stim/b/water_pines_snowy_moutain.jpg'><img style='width:150px; height:150px; padding-right: 50px; padding-left: 50px; margin-bottom: 50px;' src='stim/loselose.bmp'><img style='border: 5px solid #ffffff;  padding-left:15px;' src='stim/b/waterfall_waterBelow.jpg'>","null","html-keyboard-response","163","133997","0.0-12.0-2.38","","","","","","","","","","","","","","","","","","","","",""
"null","<img style='width:200px; height:200px; margin-left: 95px; margin-right: 95px;' src='stim/fixation.png'>","null","html-keyboard-response","164","134999","0.0-12.0-0.39","","","","","","","","","","","","","","","","","","","","",""
"1442.7599999980885","<img src='stim/b/3d-landscape-background-10.jpg'><img style='width:200px; height:200px; margin-bottom: 0px;' src='stim/fixation.png'><img src='stim/b/2822landscape.jpg'>","48","html-keyboard-response","165","136443","0.0-12.0-1.39","training","ab","0.9","valid","10","a","win:stay","49","3d-landscape-background-10.jpg","2822landscape.jpg","3d-landscape-background-10.jpg","GUID","20892881","20","10/05/2020","12","M","28","1","0","not_winner.png"
"null","<img style='border: 5px solid #ffffff; padding-right:15px;' src='stim/b/3d-landscape-background-10.jpg'><img style='width:150px; height:150px; padding-right: 50px; padding-left: 50px; margin-bottom: 50px;' src='stim/not_winner.png'><img style='border: 5px solid #808080;'src='stim/b/2822landscape.jpg'>","null","html-keyboard-response","166","137448","0.0-12.0-2.39","","","","","","","","","","","","","","","","","","","","",""
"1451.7500000001746","<p>Starting a new block of trials.</p> <p>Press the spacebar to begin.</p>","32","html-keyboard-response","167","139402","0.0-13.0","","","","","","","","","","","","","","","","","","","","",""
"null","<img style='width:200px; height:200px; margin-left: 95px; margin-right: 95px;' src='stim/fixation.png'>","null","html-keyboard-response","168","139903","0.0-14.0-0.0","","","","","","","","","","","","","","","","","","","","",""
"1130.6249999979627","<img src='stim/b/lsingeltree_tallergrass_clouds.jpg'><img style='width:200px; height:200px; margin-bottom: 0px;' src='stim/fixation.png'><img src='stim/b/orangey_field.jpg'>","49","html-keyboard-response","169","141035","0.0-14.0-1.0","training","cd","0.8","valid","10","c","win:stay","49","lsingeltree_tallergrass_clouds.jpg","orangey_field.jpg","lsingeltree_tallergrass_clouds.jpg","GUID","20892881","20","10/05/2020","12","M","29","1","1","winwin.bmp"
"null","<img style='border: 5px solid #808080;' src='stim/b/lsingeltree_tallergrass_clouds.jpg'><img style='width:150px; height:150px; padding-right: 50px; padding-left: 50px; margin-bottom: 50px;' src='stim/winwin.bmp'><img style='border: 5px solid #ffffff;  padding-left:15px;' src='stim/b/orangey_field.jpg'>","null","html-keyboard-response","170","142037","0.0-14.0-2.0","","","","","","","","","","","","","","","","","","","","",""
"null","<img style='width:200px; height:200px; margin-left: 95px; margin-right: 95px;' src='stim/fixation.png'>","null","html-keyboard-response","171","143040","0.0-14.0-0.1","","","","","","","","","","","","","","","","","","","","",""
"286.02500000124564","<img src='stim/b/3d-landscape-background-10.jpg'><img style='width:200px; height:200px; margin-bottom: 0px;' src='stim/fixation.png'><img src='stim/b/2822landscape.jpg'>","48","html-keyboard-response","172","143326","0.0-14.0-1.1","training","ab","0.9","valid","10","a","win:stay","49","3d-landscape-background-10.jpg","2822landscape.jpg","3d-landscape-background-10.jpg","GUID","20892881","20","10/05/2020","12","M","30","1","0","not_winner.png"
"null","<img style='border: 5px solid #ffffff; padding-right:15px;' src='stim/b/3d-landscape-background-10.jpg'><img style='width:150px; height:150px; padding-right: 50px; padding-left: 50px; margin-bottom: 50px;' src='stim/not_winner.png'><img style='border: 5px solid #808080;'src='stim/b/2822landscape.jpg'>","null","html-keyboard-response","173","144329","0.0-14.0-2.1","","","","","","","","","","","","","","","","","","","","",""
"null","<img style='width:200px; height:200px; margin-left: 95px; margin-right: 95px;' src='stim/fixation.png'>","null","html-keyboard-response","174","145333","0.0-14.0-0.2","","","","","","","","","","","","","","","","","","","","",""
"395.6099999995786","<img src='stim/b/waterfall_waterBelow.jpg'><img style='width:200px; height:200px; margin-bottom: 0px;' src='stim/fixation.png'><img src='stim/b/water_pines_snowy_moutain.jpg'>","48","html-keyboard-response","175","145730","0.0-14.0-1.2","training","gh","0.8","valid","10","g","avoid:lose","48","waterfall_waterBelow.jpg","water_pines_snowy_moutain.jpg","water_pines_snowy_moutain.jpg","GUID","20892881","20","10/05/2020","12","M","31","1","1","keep_money.png"
"null","<img style='border: 5px solid #ffffff; padding-right:15px;' src='stim/b/waterfall_waterBelow.jpg'><img style='width:150px; height:150px; padding-right: 50px; padding-left: 50px; margin-bottom: 50px;' src='stim/keep_money.png'><img style='border: 5px solid #808080;'src='stim/b/water_pines_snowy_moutain.jpg'>","null","html-keyboard-response","176","146736","0.0-14.0-2.2","","","","","","","","","","","","","","","","","","","","",""
"null","<img style='width:200px; height:200px; margin-left: 95px; margin-right: 95px;' src='stim/fixation.png'>","null","html-keyboard-response","177","147741","0.0-14.0-0.3","","","","","","","","","","","","","","","","","","","","",""
"264.54999999987194","<img src='stim/b/water_pines_distantMountains.jpg'><img style='width:200px; height:200px; margin-bottom: 0px;' src='stim/fixation.png'><img src='stim/b/water_fall_images.jpg'>","49","html-keyboard-response","178","148007","0.0-14.0-1.3","training","ef","0.9","invalid","10","e","avoid:lose","48","water_pines_distantMountains.jpg","water_fall_images.jpg","water_fall_images.jpg","GUID","20892881","20","10/05/2020","12","M","32","1","0","keep_money.png"
"null","<img style='border: 5px solid #808080;' src='stim/b/water_pines_distantMountains.jpg'><img style='width:150px; height:150px; padding-right: 50px; padding-left: 50px; margin-bottom: 50px;' src='stim/keep_money.png'><img style='border: 5px solid #ffffff;  padding-left:15px;' src='stim/b/water_fall_images.jpg'>","null","html-keyboard-response","179","149011","0.0-14.0-2.3","","","","","","","","","","","","","","","","","","","","",""
"null","<img style='width:200px; height:200px; margin-left: 95px; margin-right: 95px;' src='stim/fixation.png'>","null","html-keyboard-response","180","150014","0.0-14.0-0.4","","","","","","","","","","","","","","","","","","","","",""
"1513.9950000011595","<img src='stim/b/orangey_field.jpg'><img style='width:200px; height:200px; margin-bottom: 0px;' src='stim/fixation.png'><img src='stim/b/lsingeltree_tallergrass_clouds.jpg'>","48","html-keyboard-response","181","151528","0.0-14.0-1.4","training","cd","0.8","valid","10","c","win:stay","48","orangey_field.jpg","lsingeltree_tallergrass_clouds.jpg","lsingeltree_tallergrass_clouds.jpg","GUID","20892881","20","10/05/2020","12","M","33","1","1","winwin.bmp"
"null","<img style='border: 5px solid #ffffff; padding-right:15px;' src='stim/b/orangey_field.jpg'><img style='width:150px; height:150px; padding-right: 50px; padding-left: 50px; margin-bottom: 50px;' src='stim/winwin.bmp'><img style='border: 5px solid #808080;'src='stim/b/lsingeltree_tallergrass_clouds.jpg'>","null","html-keyboard-response","182","152532","0.0-14.0-2.4","","","","","","","","","","","","","","","","","","","","",""
"null","<img style='width:200px; height:200px; margin-left: 95px; margin-right: 95px;' src='stim/fixation.png'>","null","html-keyboard-response","183","153537","0.0-14.0-0.5","","","","","","","","","","","","","","","","","","","","",""
"645.5950000017765","<img src='stim/b/water_pines_distantMountains.jpg'><img style='width:200px; height:200px; margin-bottom: 0px;' src='stim/fixation.png'><img src='stim/b/water_fall_images.jpg'>","49","html-keyboard-response","184","154184","0.0-14.0-1.5","training","ef","0.9","valid","10","e","avoid:lose","48","water_pines_distantMountains.jpg","water_fall_images.jpg","water_fall_images.jpg","GUID","20892881","20","10/05/2020","12","M","34","1","0","loselose.bmp"
"null","<img style='border: 5px solid #808080;' src='stim/b/water_pines_distantMountains.jpg'><img style='width:150px; height:150px; padding-right: 50px; padding-left: 50px; margin-bottom: 50px;' src='stim/loselose.bmp'><img style='border: 5px solid #ffffff;  padding-left:15px;' src='stim/b/water_fall_images.jpg'>","null","html-keyboard-response","185","155188","0.0-14.0-2.5","","","","","","","","","","","","","","","","","","","","",""
"null","<img style='width:200px; height:200px; margin-left: 95px; margin-right: 95px;' src='stim/fixation.png'>","null","html-keyboard-response","186","156192","0.0-14.0-0.6","","","","","","","","","","","","","","","","","","","","",""
"324.58999999653315","<img src='stim/b/waterfall_waterBelow.jpg'><img style='width:200px; height:200px; margin-bottom: 0px;' src='stim/fixation.png'><img src='stim/b/water_pines_snowy_moutain.jpg'>","48","html-keyboard-response","187","156518","0.0-14.0-1.6","training","gh","0.8","valid","10","g","avoid:lose","48","waterfall_waterBelow.jpg","water_pines_snowy_moutain.jpg","water_pines_snowy_moutain.jpg","GUID","20892881","20","10/05/2020","12","M","35","1","1","keep_money.png"
"null","<img style='border: 5px solid #ffffff; padding-right:15px;' src='stim/b/waterfall_waterBelow.jpg'><img style='width:150px; height:150px; padding-right: 50px; padding-left: 50px; margin-bottom: 50px;' src='stim/keep_money.png'><img style='border: 5px solid #808080;'src='stim/b/water_pines_snowy_moutain.jpg'>","null","html-keyboard-response","188","157519","0.0-14.0-2.6","","","","","","","","","","","","","","","","","","","","",""
"null","<img style='width:200px; height:200px; margin-left: 95px; margin-right: 95px;' src='stim/fixation.png'>","null","html-keyboard-response","189","158524","0.0-14.0-0.7","","","","","","","","","","","","","","","","","","","","",""
"1891.8350000021746","<img src='stim/b/2822landscape.jpg'><img style='width:200px; height:200px; margin-bottom: 0px;' src='stim/fixation.png'><img src='stim/b/3d-landscape-background-10.jpg'>","49","html-keyboard-response","190","160417","0.0-14.0-1.7","training","ab","0.9","invalid","10","a","win:stay","48","2822landscape.jpg","3d-landscape-background-10.jpg","3d-landscape-background-10.jpg","GUID","20892881","20","10/05/2020","12","M","36","1","0","winwin.bmp"
"null","<img style='border: 5px solid #808080;' src='stim/b/2822landscape.jpg'><img style='width:150px; height:150px; padding-right: 50px; padding-left: 50px; margin-bottom: 50px;' src='stim/winwin.bmp'><img style='border: 5px solid #ffffff;  padding-left:15px;' src='stim/b/3d-landscape-background-10.jpg'>","null","html-keyboard-response","191","161419","0.0-14.0-2.7","","","","","","","","","","","","","","","","","","","","",""
"null","<img style='width:200px; height:200px; margin-left: 95px; margin-right: 95px;' src='stim/fixation.png'>","null","html-keyboard-response","192","162424","0.0-14.0-0.8","","","","","","","","","","","","","","","","","","","","",""
"240.60499999905005","<img src='stim/b/2822landscape.jpg'><img style='width:200px; height:200px; margin-bottom: 0px;' src='stim/fixation.png'><img src='stim/b/3d-landscape-background-10.jpg'>","48","html-keyboard-response","193","162666","0.0-14.0-1.8","training","ab","0.9","valid","10","a","win:stay","48","2822landscape.jpg","3d-landscape-background-10.jpg","3d-landscape-background-10.jpg","GUID","20892881","20","10/05/2020","12","M","37","1","1","winwin.bmp"
"null","<img style='border: 5px solid #ffffff; padding-right:15px;' src='stim/b/2822landscape.jpg'><img style='width:150px; height:150px; padding-right: 50px; padding-left: 50px; margin-bottom: 50px;' src='stim/winwin.bmp'><img style='border: 5px solid #808080;'src='stim/b/3d-landscape-background-10.jpg'>","null","html-keyboard-response","194","163669","0.0-14.0-2.8","","","","","","","","","","","","","","","","","","","","",""
"null","<img style='width:200px; height:200px; margin-left: 95px; margin-right: 95px;' src='stim/fixation.png'>","null","html-keyboard-response","195","164674","0.0-14.0-0.9","","","","","","","","","","","","","","","","","","","","",""
"779.8700000057579","<img src='stim/b/water_pines_snowy_moutain.jpg'><img style='width:200px; height:200px; margin-bottom: 0px;' src='stim/fixation.png'><img src='stim/b/waterfall_waterBelow.jpg'>","49","html-keyboard-response","196","165455","0.0-14.0-1.9","training","gh","0.8","valid","10","g","avoid:lose","49","waterfall_waterBelow.jpg","water_pines_snowy_moutain.jpg","water_pines_snowy_moutain.jpg","GUID","20892881","20","10/05/2020","12","M","38","1","1","keep_money.png"
"null","<img style='border: 5px solid #808080;' src='stim/b/water_pines_snowy_moutain.jpg'><img style='width:150px; height:150px; padding-right: 50px; padding-left: 50px; margin-bottom: 50px;' src='stim/keep_money.png'><img style='border: 5px solid #ffffff;  padding-left:15px;' src='stim/b/waterfall_waterBelow.jpg'>","null","html-keyboard-response","197","166459","0.0-14.0-2.9","","","","","","","","","","","","","","","","","","","","",""
"null","<img style='width:200px; height:200px; margin-left: 95px; margin-right: 95px;' src='stim/fixation.png'>","null","html-keyboard-response","198","167465","0.0-14.0-0.10","","","","","","","","","","","","","","","","","","","","",""
"418.74499999539694","<img src='stim/b/water_fall_images.jpg'><img style='width:200px; height:200px; margin-bottom: 0px;' src='stim/fixation.png'><img src='stim/b/water_pines_distantMountains.jpg'>","49","html-keyboard-response","199","167885","0.0-14.0-1.10","training","ef","0.9","valid","10","e","avoid:lose","49","water_fall_images.jpg","water_pines_distantMountains.jpg","water_fall_images.jpg","GUID","20892881","20","10/05/2020","12","M","39","1","1","keep_money.png"
"null","<img style='border: 5px solid #808080;' src='stim/b/water_fall_images.jpg'><img style='width:150px; height:150px; padding-right: 50px; padding-left: 50px; margin-bottom: 50px;' src='stim/keep_money.png'><img style='border: 5px solid #ffffff;  padding-left:15px;' src='stim/b/water_pines_distantMountains.jpg'>","null","html-keyboard-response","200","168890","0.0-14.0-2.10","","","","","","","","","","","","","","","","","","","","",""
"null","<img style='width:200px; height:200px; margin-left: 95px; margin-right: 95px;' src='stim/fixation.png'>","null","html-keyboard-response","201","169892","0.0-14.0-0.11","","","","","","","","","","","","","","","","","","","","",""
"527.1250000005239","<img src='stim/b/lsingeltree_tallergrass_clouds.jpg'><img style='width:200px; height:200px; margin-bottom: 0px;' src='stim/fixation.png'><img src='stim/b/orangey_field.jpg'>","49","html-keyboard-response","202","170420","0.0-14.0-1.11","training","cd","0.8","valid","10","c","win:stay","49","lsingeltree_tallergrass_clouds.jpg","orangey_field.jpg","lsingeltree_tallergrass_clouds.jpg","GUID","20892881","20","10/05/2020","12","M","40","1","1","winwin.bmp"
"null","<img style='border: 5px solid #808080;' src='stim/b/lsingeltree_tallergrass_clouds.jpg'><img style='width:150px; height:150px; padding-right: 50px; padding-left: 50px; margin-bottom: 50px;' src='stim/winwin.bmp'><img style='border: 5px solid #ffffff;  padding-left:15px;' src='stim/b/orangey_field.jpg'>","null","html-keyboard-response","203","171423","0.0-14.0-2.11","","","","","","","","","","","","","","","","","","","","",""
"null","<img style='width:200px; height:200px; margin-left: 95px; margin-right: 95px;' src='stim/fixation.png'>","null","html-keyboard-response","204","172428","0.0-14.0-0.12","","","","","","","","","","","","","","","","","","","","",""
"526.1650000029476","<img src='stim/b/water_fall_images.jpg'><img style='width:200px; height:200px; margin-bottom: 0px;' src='stim/fixation.png'><img src='stim/b/water_pines_distantMountains.jpg'>","48","html-keyboard-response","205","172956","0.0-14.0-1.12","training","ef","0.9","valid","10","e","avoid:lose","49","water_fall_images.jpg","water_pines_distantMountains.jpg","water_fall_images.jpg","GUID","20892881","20","10/05/2020","12","M","1","2","0","loselose.bmp"
"null","<img style='border: 5px solid #ffffff; padding-right:15px;' src='stim/b/water_fall_images.jpg'><img style='width:150px; height:150px; padding-right: 50px; padding-left: 50px; margin-bottom: 50px;' src='stim/loselose.bmp'><img style='border: 5px solid #808080;'src='stim/b/water_pines_distantMountains.jpg'>","null","html-keyboard-response","206","173959","0.0-14.0-2.12","","","","","","","","","","","","","","","","","","","","",""
"null","<img style='width:200px; height:200px; margin-left: 95px; margin-right: 95px;' src='stim/fixation.png'>","null","html-keyboard-response","207","174965","0.0-14.0-0.13","","","","","","","","","","","","","","","","","","","","",""
"374.4799999985844","<img src='stim/b/3d-landscape-background-10.jpg'><img style='width:200px; height:200px; margin-bottom: 0px;' src='stim/fixation.png'><img src='stim/b/2822landscape.jpg'>","49","html-keyboard-response","208","175340","0.0-14.0-1.13","training","ab","0.9","valid","10","a","win:stay","49","3d-landscape-background-10.jpg","2822landscape.jpg","3d-landscape-background-10.jpg","GUID","20892881","20","10/05/2020","12","M","2","2","1","winwin.bmp"
"null","<img style='border: 5px solid #808080;' src='stim/b/3d-landscape-background-10.jpg'><img style='width:150px; height:150px; padding-right: 50px; padding-left: 50px; margin-bottom: 50px;' src='stim/winwin.bmp'><img style='border: 5px solid #ffffff;  padding-left:15px;' src='stim/b/2822landscape.jpg'>","null","html-keyboard-response","209","176344","0.0-14.0-2.13","","","","","","","","","","","","","","","","","","","","",""
"null","<img style='width:200px; height:200px; margin-left: 95px; margin-right: 95px;' src='stim/fixation.png'>","null","html-keyboard-response","210","177349","0.0-14.0-0.14","","","","","","","","","","","","","","","","","","","","",""
"829.1349999999511","<img src='stim/b/water_pines_snowy_moutain.jpg'><img style='width:200px; height:200px; margin-bottom: 0px;' src='stim/fixation.png'><img src='stim/b/waterfall_waterBelow.jpg'>","49","html-keyboard-response","211","178179","0.0-14.0-1.14","training","gh","0.8","valid","10","g","avoid:lose","49","waterfall_waterBelow.jpg","water_pines_snowy_moutain.jpg","water_pines_snowy_moutain.jpg","GUID","20892881","20","10/05/2020","12","M","3","2","1","keep_money.png"
"null","<img style='border: 5px solid #808080;' src='stim/b/water_pines_snowy_moutain.jpg'><img style='width:150px; height:150px; padding-right: 50px; padding-left: 50px; margin-bottom: 50px;' src='stim/keep_money.png'><img style='border: 5px solid #ffffff;  padding-left:15px;' src='stim/b/waterfall_waterBelow.jpg'>","null","html-keyboard-response","212","179181","0.0-14.0-2.14","","","","","","","","","","","","","","","","","","","","",""
"null","<img style='width:200px; height:200px; margin-left: 95px; margin-right: 95px;' src='stim/fixation.png'>","null","html-keyboard-response","213","180187","0.0-14.0-0.15","","","","","","","","","","","","","","","","","","","","",""
"5374.105000002601","<img src='stim/b/lsingeltree_tallergrass_clouds.jpg'><img style='width:200px; height:200px; margin-bottom: 0px;' src='stim/fixation.png'><img src='stim/b/orangey_field.jpg'>","48","html-keyboard-response","214","185562","0.0-14.0-1.15","training","cd","0.8","valid","10","c","win:stay","49","lsingeltree_tallergrass_clouds.jpg","orangey_field.jpg","lsingeltree_tallergrass_clouds.jpg","GUID","20892881","20","10/05/2020","12","M","4","2","0","not_winner.png"
"null","<img style='border: 5px solid #ffffff; padding-right:15px;' src='stim/b/lsingeltree_tallergrass_clouds.jpg'><img style='width:150px; height:150px; padding-right: 50px; padding-left: 50px; margin-bottom: 50px;' src='stim/not_winner.png'><img style='border: 5px solid #808080;'src='stim/b/orangey_field.jpg'>","null","html-keyboard-response","215","186564","0.0-14.0-2.15","","","","","","","","","","","","","","","","","","","","",""
"null","<img style='width:200px; height:200px; margin-left: 95px; margin-right: 95px;' src='stim/fixation.png'>","null","html-keyboard-response","216","187569","0.0-14.0-0.16","","","","","","","","","","","","","","","","","","","","",""
"288.315000005241","<img src='stim/b/lsingeltree_tallergrass_clouds.jpg'><img style='width:200px; height:200px; margin-bottom: 0px;' src='stim/fixation.png'><img src='stim/b/orangey_field.jpg'>","49","html-keyboard-response","217","187859","0.0-14.0-1.16","training","cd","0.8","valid","10","c","win:stay","49","lsingeltree_tallergrass_clouds.jpg","orangey_field.jpg","lsingeltree_tallergrass_clouds.jpg","GUID","20892881","20","10/05/2020","12","M","5","2","1","winwin.bmp"
"null","<img style='border: 5px solid #808080;' src='stim/b/lsingeltree_tallergrass_clouds.jpg'><img style='width:150px; height:150px; padding-right: 50px; padding-left: 50px; margin-bottom: 50px;' src='stim/winwin.bmp'><img style='border: 5px solid #ffffff;  padding-left:15px;' src='stim/b/orangey_field.jpg'>","null","html-keyboard-response","218","188863","0.0-14.0-2.16","","","","","","","","","","","","","","","","","","","","",""
"null","<img style='width:200px; height:200px; margin-left: 95px; margin-right: 95px;' src='stim/fixation.png'>","null","html-keyboard-response","219","189869","0.0-14.0-0.17","","","","","","","","","","","","","","","","","","","","",""
"407.534999998461","<img src='stim/b/water_fall_images.jpg'><img style='width:200px; height:200px; margin-bottom: 0px;' src='stim/fixation.png'><img src='stim/b/water_pines_distantMountains.jpg'>","49","html-keyboard-response","220","190278","0.0-14.0-1.17","training","ef","0.9","valid","10","e","avoid:lose","49","water_fall_images.jpg","water_pines_distantMountains.jpg","water_fall_images.jpg","GUID","20892881","20","10/05/2020","12","M","6","2","1","keep_money.png"
"null","<img style='border: 5px solid #808080;' src='stim/b/water_fall_images.jpg'><img style='width:150px; height:150px; padding-right: 50px; padding-left: 50px; margin-bottom: 50px;' src='stim/keep_money.png'><img style='border: 5px solid #ffffff;  padding-left:15px;' src='stim/b/water_pines_distantMountains.jpg'>","null","html-keyboard-response","221","191283","0.0-14.0-2.17","","","","","","","","","","","","","","","","","","","","",""
"null","<img style='width:200px; height:200px; margin-left: 95px; margin-right: 95px;' src='stim/fixation.png'>","null","html-keyboard-response","222","192285","0.0-14.0-0.18","","","","","","","","","","","","","","","","","","","","",""
"229.49000000517117","<img src='stim/b/waterfall_waterBelow.jpg'><img style='width:200px; height:200px; margin-bottom: 0px;' src='stim/fixation.png'><img src='stim/b/water_pines_snowy_moutain.jpg'>","48","html-keyboard-response","223","192516","0.0-14.0-1.18","training","gh","0.8","valid","10","g","avoid:lose","48","waterfall_waterBelow.jpg","water_pines_snowy_moutain.jpg","water_pines_snowy_moutain.jpg","GUID","20892881","20","10/05/2020","12","M","7","2","1","keep_money.png"
"null","<img style='border: 5px solid #ffffff; padding-right:15px;' src='stim/b/waterfall_waterBelow.jpg'><img style='width:150px; height:150px; padding-right: 50px; padding-left: 50px; margin-bottom: 50px;' src='stim/keep_money.png'><img style='border: 5px solid #808080;'src='stim/b/water_pines_snowy_moutain.jpg'>","null","html-keyboard-response","224","193519","0.0-14.0-2.18","","","","","","","","","","","","","","","","","","","","",""
"null","<img style='width:200px; height:200px; margin-left: 95px; margin-right: 95px;' src='stim/fixation.png'>","null","html-keyboard-response","225","194525","0.0-14.0-0.19","","","","","","","","","","","","","","","","","","","","",""
"262.894999999844","<img src='stim/b/2822landscape.jpg'><img style='width:200px; height:200px; margin-bottom: 0px;' src='stim/fixation.png'><img src='stim/b/3d-landscape-background-10.jpg'>","49","html-keyboard-response","226","194789","0.0-14.0-1.19","training","ab","0.9","valid","10","a","win:stay","48","2822landscape.jpg","3d-landscape-background-10.jpg","3d-landscape-background-10.jpg","GUID","20892881","20","10/05/2020","12","M","8","2","0","not_winner.png"
"null","<img style='border: 5px solid #808080;' src='stim/b/2822landscape.jpg'><img style='width:150px; height:150px; padding-right: 50px; padding-left: 50px; margin-bottom: 50px;' src='stim/not_winner.png'><img style='border: 5px solid #ffffff;  padding-left:15px;' src='stim/b/3d-landscape-background-10.jpg'>","null","html-keyboard-response","227","195792","0.0-14.0-2.19","","","","","","","","","","","","","","","","","","","","",""
"null","<img style='width:200px; height:200px; margin-left: 95px; margin-right: 95px;' src='stim/fixation.png'>","null","html-keyboard-response","228","196797","0.0-14.0-0.20","","","","","","","","","","","","","","","","","","","","",""
"236.20500000106404","<img src='stim/b/lsingeltree_tallergrass_clouds.jpg'><img style='width:200px; height:200px; margin-bottom: 0px;' src='stim/fixation.png'><img src='stim/b/orangey_field.jpg'>","48","html-keyboard-response","229","197035","0.0-14.0-1.20","training","cd","0.8","valid","10","c","win:stay","49","lsingeltree_tallergrass_clouds.jpg","orangey_field.jpg","lsingeltree_tallergrass_clouds.jpg","GUID","20892881","20","10/05/2020","12","M","9","2","0","not_winner.png"
"null","<img style='border: 5px solid #ffffff; padding-right:15px;' src='stim/b/lsingeltree_tallergrass_clouds.jpg'><img style='width:150px; height:150px; padding-right: 50px; padding-left: 50px; margin-bottom: 50px;' src='stim/not_winner.png'><img style='border: 5px solid #808080;'src='stim/b/orangey_field.jpg'>","null","html-keyboard-response","230","198040","0.0-14.0-2.20","","","","","","","","","","","","","","","","","","","","",""
"null","<img style='width:200px; height:200px; margin-left: 95px; margin-right: 95px;' src='stim/fixation.png'>","null","html-keyboard-response","231","199043","0.0-14.0-0.21","","","","","","","","","","","","","","","","","","","","",""
"251.0099999999511","<img src='stim/b/2822landscape.jpg'><img style='width:200px; height:200px; margin-bottom: 0px;' src='stim/fixation.png'><img src='stim/b/3d-landscape-background-10.jpg'>","49","html-keyboard-response","232","199295","0.0-14.0-1.21","training","ab","0.9","valid","10","a","win:stay","48","2822landscape.jpg","3d-landscape-background-10.jpg","3d-landscape-background-10.jpg","GUID","20892881","20","10/05/2020","12","M","10","2","0","not_winner.png"
"null","<img style='border: 5px solid #808080;' src='stim/b/2822landscape.jpg'><img style='width:150px; height:150px; padding-right: 50px; padding-left: 50px; margin-bottom: 50px;' src='stim/not_winner.png'><img style='border: 5px solid #ffffff;  padding-left:15px;' src='stim/b/3d-landscape-background-10.jpg'>","null","html-keyboard-response","233","200298","0.0-14.0-2.21","","","","","","","","","","","","","","","","","","","","",""
"null","<img style='width:200px; height:200px; margin-left: 95px; margin-right: 95px;' src='stim/fixation.png'>","null","html-keyboard-response","234","201303","0.0-14.0-0.22","","","","","","","","","","","","","","","","","","","","",""
"336.59500000067055","<img src='stim/b/water_pines_snowy_moutain.jpg'><img style='width:200px; height:200px; margin-bottom: 0px;' src='stim/fixation.png'><img src='stim/b/waterfall_waterBelow.jpg'>","48","html-keyboard-response","235","201641","0.0-14.0-1.22","training","gh","0.8","valid","10","g","avoid:lose","49","waterfall_waterBelow.jpg","water_pines_snowy_moutain.jpg","water_pines_snowy_moutain.jpg","GUID","20892881","20","10/05/2020","12","M","11","2","0","loselose.bmp"
"null","<img style='border: 5px solid #ffffff; padding-right:15px;' src='stim/b/water_pines_snowy_moutain.jpg'><img style='width:150px; height:150px; padding-right: 50px; padding-left: 50px; margin-bottom: 50px;' src='stim/loselose.bmp'><img style='border: 5px solid #808080;'src='stim/b/waterfall_waterBelow.jpg'>","null","html-keyboard-response","236","202643","0.0-14.0-2.22","","","","","","","","","","","","","","","","","","","","",""
"null","<img style='width:200px; height:200px; margin-left: 95px; margin-right: 95px;' src='stim/fixation.png'>","null","html-keyboard-response","237","203646","0.0-14.0-0.23","","","","","","","","","","","","","","","","","","","","",""
"289.7750000047381","<img src='stim/b/water_pines_distantMountains.jpg'><img style='width:200px; height:200px; margin-bottom: 0px;' src='stim/fixation.png'><img src='stim/b/water_fall_images.jpg'>","49","html-keyboard-response","238","203937","0.0-14.0-1.23","training","ef","0.9","valid","10","e","avoid:lose","48","water_pines_distantMountains.jpg","water_fall_images.jpg","water_fall_images.jpg","GUID","20892881","20","10/05/2020","12","M","12","2","0","loselose.bmp"
"null","<img style='border: 5px solid #808080;' src='stim/b/water_pines_distantMountains.jpg'><img style='width:150px; height:150px; padding-right: 50px; padding-left: 50px; margin-bottom: 50px;' src='stim/loselose.bmp'><img style='border: 5px solid #ffffff;  padding-left:15px;' src='stim/b/water_fall_images.jpg'>","null","html-keyboard-response","239","204940","0.0-14.0-2.23","","","","","","","","","","","","","","","","","","","","",""
"null","<img style='width:200px; height:200px; margin-left: 95px; margin-right: 95px;' src='stim/fixation.png'>","null","html-keyboard-response","240","205943","0.0-14.0-0.24","","","","","","","","","","","","","","","","","","","","",""
"544.820000002801","<img src='stim/b/2822landscape.jpg'><img style='width:200px; height:200px; margin-bottom: 0px;' src='stim/fixation.png'><img src='stim/b/3d-landscape-background-10.jpg'>","48","html-keyboard-response","241","206489","0.0-14.0-1.24","training","ab","0.9","valid","10","a","win:stay","48","2822landscape.jpg","3d-landscape-background-10.jpg","3d-landscape-background-10.jpg","GUID","20892881","20","10/05/2020","12","M","13","2","1","winwin.bmp"
"null","<img style='border: 5px solid #ffffff; padding-right:15px;' src='stim/b/2822landscape.jpg'><img style='width:150px; height:150px; padding-right: 50px; padding-left: 50px; margin-bottom: 50px;' src='stim/winwin.bmp'><img style='border: 5px solid #808080;'src='stim/b/3d-landscape-background-10.jpg'>","null","html-keyboard-response","242","207491","0.0-14.0-2.24","","","","","","","","","","","","","","","","","","","","",""
"null","<img style='width:200px; height:200px; margin-left: 95px; margin-right: 95px;' src='stim/fixation.png'>","null","html-keyboard-response","243","208493","0.0-14.0-0.25","","","","","","","","","","","","","","","","","","","","",""
"410.3649999960908","<img src='stim/b/water_pines_distantMountains.jpg'><img style='width:200px; height:200px; margin-bottom: 0px;' src='stim/fixation.png'><img src='stim/b/water_fall_images.jpg'>","48","html-keyboard-response","244","208904","0.0-14.0-1.25","training","ef","0.9","valid","10","e","avoid:lose","48","water_pines_distantMountains.jpg","water_fall_images.jpg","water_fall_images.jpg","GUID","20892881","20","10/05/2020","12","M","14","2","1","keep_money.png"
"null","<img style='border: 5px solid #ffffff; padding-right:15px;' src='stim/b/water_pines_distantMountains.jpg'><img style='width:150px; height:150px; padding-right: 50px; padding-left: 50px; margin-bottom: 50px;' src='stim/keep_money.png'><img style='border: 5px solid #808080;'src='stim/b/water_fall_images.jpg'>","null","html-keyboard-response","245","209908","0.0-14.0-2.25","","","","","","","","","","","","","","","","","","","","",""
"null","<img style='width:200px; height:200px; margin-left: 95px; margin-right: 95px;' src='stim/fixation.png'>","null","html-keyboard-response","246","210914","0.0-14.0-0.26","","","","","","","","","","","","","","","","","","","","",""
"295.14999999810243","<img src='stim/b/water_pines_snowy_moutain.jpg'><img style='width:200px; height:200px; margin-bottom: 0px;' src='stim/fixation.png'><img src='stim/b/waterfall_waterBelow.jpg'>","48","html-keyboard-response","247","211210","0.0-14.0-1.26","training","gh","0.8","valid","10","g","avoid:lose","49","waterfall_waterBelow.jpg","water_pines_snowy_moutain.jpg","water_pines_snowy_moutain.jpg","GUID","20892881","20","10/05/2020","12","M","15","2","0","loselose.bmp"
"null","<img style='border: 5px solid #ffffff; padding-right:15px;' src='stim/b/water_pines_snowy_moutain.jpg'><img style='width:150px; height:150px; padding-right: 50px; padding-left: 50px; margin-bottom: 50px;' src='stim/loselose.bmp'><img style='border: 5px solid #808080;'src='stim/b/waterfall_waterBelow.jpg'>","null","html-keyboard-response","248","212216","0.0-14.0-2.26","","","","","","","","","","","","","","","","","","","","",""
"null","<img style='width:200px; height:200px; margin-left: 95px; margin-right: 95px;' src='stim/fixation.png'>","null","html-keyboard-response","249","213221","0.0-14.0-0.27","","","","","","","","","","","","","","","","","","","","",""
"287.6699999978882","<img src='stim/b/orangey_field.jpg'><img style='width:200px; height:200px; margin-bottom: 0px;' src='stim/fixation.png'><img src='stim/b/lsingeltree_tallergrass_clouds.jpg'>","49","html-keyboard-response","250","213509","0.0-14.0-1.27","training","cd","0.8","invalid","10","c","win:stay","48","orangey_field.jpg","lsingeltree_tallergrass_clouds.jpg","lsingeltree_tallergrass_clouds.jpg","GUID","20892881","20","10/05/2020","12","M","16","2","0","winwin.bmp"
"null","<img style='border: 5px solid #808080;' src='stim/b/orangey_field.jpg'><img style='width:150px; height:150px; padding-right: 50px; padding-left: 50px; margin-bottom: 50px;' src='stim/winwin.bmp'><img style='border: 5px solid #ffffff;  padding-left:15px;' src='stim/b/lsingeltree_tallergrass_clouds.jpg'>","null","html-keyboard-response","251","214512","0.0-14.0-2.27","","","","","","","","","","","","","","","","","","","","",""
"null","<img style='width:200px; height:200px; margin-left: 95px; margin-right: 95px;' src='stim/fixation.png'>","null","html-keyboard-response","252","215517","0.0-14.0-0.28","","","","","","","","","","","","","","","","","","","","",""
"285.69500000594417","<img src='stim/b/water_fall_images.jpg'><img style='width:200px; height:200px; margin-bottom: 0px;' src='stim/fixation.png'><img src='stim/b/water_pines_distantMountains.jpg'>","49","html-keyboard-response","253","215804","0.0-14.0-1.28","training","ef","0.9","valid","10","e","avoid:lose","49","water_fall_images.jpg","water_pines_distantMountains.jpg","water_fall_images.jpg","GUID","20892881","20","10/05/2020","12","M","17","2","1","keep_money.png"
"null","<img style='border: 5px solid #808080;' src='stim/b/water_fall_images.jpg'><img style='width:150px; height:150px; padding-right: 50px; padding-left: 50px; margin-bottom: 50px;' src='stim/keep_money.png'><img style='border: 5px solid #ffffff;  padding-left:15px;' src='stim/b/water_pines_distantMountains.jpg'>","null","html-keyboard-response","254","216808","0.0-14.0-2.28","","","","","","","","","","","","","","","","","","","","",""
"null","<img style='width:200px; height:200px; margin-left: 95px; margin-right: 95px;' src='stim/fixation.png'>","null","html-keyboard-response","255","217813","0.0-14.0-0.29","","","","","","","","","","","","","","","","","","","","",""
"277.75499999552267","<img src='stim/b/waterfall_waterBelow.jpg'><img style='width:200px; height:200px; margin-bottom: 0px;' src='stim/fixation.png'><img src='stim/b/water_pines_snowy_moutain.jpg'>","49","html-keyboard-response","256","218092","0.0-14.0-1.29","training","gh","0.8","invalid","10","g","avoid:lose","48","waterfall_waterBelow.jpg","water_pines_snowy_moutain.jpg","water_pines_snowy_moutain.jpg","GUID","20892881","20","10/05/2020","12","M","18","2","0","keep_money.png"
"null","<img style='border: 5px solid #808080;' src='stim/b/waterfall_waterBelow.jpg'><img style='width:150px; height:150px; padding-right: 50px; padding-left: 50px; margin-bottom: 50px;' src='stim/keep_money.png'><img style='border: 5px solid #ffffff;  padding-left:15px;' src='stim/b/water_pines_snowy_moutain.jpg'>","null","html-keyboard-response","257","219094","0.0-14.0-2.29","","","","","","","","","","","","","","","","","","","","",""
"null","<img style='width:200px; height:200px; margin-left: 95px; margin-right: 95px;' src='stim/fixation.png'>","null","html-keyboard-response","258","220100","0.0-14.0-0.30","","","","","","","","","","","","","","","","","","","","",""
"398.17000000039116","<img src='stim/b/orangey_field.jpg'><img style='width:200px; height:200px; margin-bottom: 0px;' src='stim/fixation.png'><img src='stim/b/lsingeltree_tallergrass_clouds.jpg'>","48","html-keyboard-response","259","220499","0.0-14.0-1.30","training","cd","0.8","valid","10","c","win:stay","48","orangey_field.jpg","lsingeltree_tallergrass_clouds.jpg","lsingeltree_tallergrass_clouds.jpg","GUID","20892881","20","10/05/2020","12","M","19","2","1","winwin.bmp"
