"rt","stimulus","key_press","trial_type","trial_index","time_elapsed","internal_node_id","test_part","pair","pair_validity","trial_validity","pair_trials_per_block","pair_best_choice","reward_type","correct_response","stim_left","stim_right","stim_best_choice","subjectkey","src_subject_id","interview_date","interview_age","sex","handedness","trial","block","accuracy","reward_tally","stim_feedback","stim_set","reward_set"
"1685.0000000013097","<h3 style=""color:#0ed145;"">Welcome to the experiment!</h3><p>Press the spacebar to continue.</p>","32","html-keyboard-response","0","1688","0.0-0.0","","","","","","","","","","","","","","","","","","","","","","","",""
"4260.000000002037","<p>In this task you will see two pictures side-by-side on the computer screen.</p><p>In each pair of pictures you see on the screen, one picture will be better than the other.</p><p>You need to figure out which picture in each pair is the better one.</p><p>Press the spacebar to continue.</p>","32","html-keyboard-response","1","5949","0.0-1.0","","","","","","","","","","","","","","","","","","","","","","","",""
"3261.9999999988067","<p>The better picture in each pair will be more likely to either:</p><p>A) win you some points,</p><p>or</p><p>B) allow you to keep the points you've already earned.</p><p>Press the spacebar to continue.</p>","32","html-keyboard-response","2","9213","0.0-2.0","","","","","","","","","","","","","","","","","","","","","","","",""
"11672.999999998865","<p>On those trials where you can A) win points, you will want to select the picture most likely to earn points:</p><img style=""height:100px; width:100px"" src=""stim/winpoints.bmp""</img><p>Because if you keep seeing this feedback:</p><img style=""height:125px; width:125px"" src=""stim/not_winner.png""></img><p>you probably aren't selecting the best picture...</p><p>Press the spacebar to continue.</p>","32","html-keyboard-response","3","20889","0.0-3.0","","","","","","","","","","","","","","","","","","","","","","","",""
"8722.000000001572","<p>On those trials where you can B) lose points, you will want to select the picture most likely to give this feedback:</p><img style=""height:125px; width:125px"" src=""stim/keep_points.png""></img><p>Because if you keep seeing this:</p><img style=""height:100px; width:100px"" src=""stim/losepoints.bmp""></img><p>you probably aren't selecting the best picture...</p><p>Press the spacebar to continue.</p>","32","html-keyboard-response","4","29613","0.0-4.0","","","","","","","","","","","","","","","","","","","","","","","",""
"3231.999999999971","<p>Press the 1 key on your keyboard to select the picture on the LEFT.</p><p>Press the 0 key on your keyboard to select the picture on the RIGHT.</p><p>Press the spacebar to continue.</p>","32","html-keyboard-response","5","32847","0.0-5.0","","","","","","","","","","","","","","","","","","","","","","","",""
"3940.999999998894","<p>First, you will do some practice trials.</p> <p>Press either response button when you are ready to begin.</p>","49","html-keyboard-response","6","36789","0.0-6.0","","","","","","","","","","","","","","","","","","","","","","","",""
"null","<img style='width:200px; height:200px; margin-left: 95px; margin-right: 95px;' src='stim/fixation.png'>","null","html-keyboard-response","7","37291","0.0-7.0-0.0","","","","","","","","","","","","","","","","","","","","","","","",""
"631.9999999977881","<img src='stim/b/African_landscape.jpg' width='750px' height='500px'><img style='width:200px; height:200px; margin-bottom: 0px;' src='stim/fixation.png'><img src='stim/b/closeWater_pines_mountains.jpg' width='750px' height='500px'>","49","html-keyboard-response","8","37925","0.0-7.0-1.0","practice","ab","1","valid","6","a","win:stay","49","African_landscape.jpg","closeWater_pines_mountains.jpg","African_landscape.jpg","GUID","11","11/12/2020","43","M","right","-1","1","1","5","winpoints.bmp","B","points"
"null","<img style='border: 5px solid #808080;' src='stim/b/African_landscape.jpg' width='750px' height='500px'><img style='width:150px; height:150px; padding-right: 50px; padding-left: 50px; margin-bottom: 25px;' src='stim/winpoints.bmp'><img style='border: 5px solid #ffffff;  padding-left:15px;' src='stim/b/closeWater_pines_mountains.jpg' width='750px' height='500px'>","null","html-keyboard-response","9","38928","0.0-7.0-2.0","","","","","","","","","","","","","","","","","","","","","","","",""
"null","<img style='width:200px; height:200px; margin-left: 95px; margin-right: 95px;' src='stim/fixation.png'>","null","html-keyboard-response","10","39930","0.0-7.0-0.1","","","","","","","","","","","","","","","","","","","","","","","",""
"561.0000000015134","<img src='stim/b/wheat_with_farmhouse.jpg' width='750px' height='500px'><img style='width:200px; height:200px; margin-bottom: 0px;' src='stim/fixation.png'><img src='stim/b/Trees_with_flowers.jpg' width='750px' height='500px'>","49","html-keyboard-response","11","40493","0.0-7.0-1.1","practice","ef","1","valid","6","e","avoid:lose","48","wheat_with_farmhouse.jpg","Trees_with_flowers.jpg","Trees_with_flowers.jpg","GUID","11","11/12/2020","43","M","right","-2","1","0","0","losepoints.bmp","B","points"
"null","<img style='border: 5px solid #808080;' src='stim/b/wheat_with_farmhouse.jpg' width='750px' height='500px'><img style='width:150px; height:150px; padding-right: 50px; padding-left: 50px; margin-bottom: 25px;' src='stim/losepoints.bmp'><img style='border: 5px solid #ffffff;  padding-left:15px;' src='stim/b/Trees_with_flowers.jpg' width='750px' height='500px'>","null","html-keyboard-response","12","41496","0.0-7.0-2.1","","","","","","","","","","","","","","","","","","","","","","","",""
"null","<img style='width:200px; height:200px; margin-left: 95px; margin-right: 95px;' src='stim/fixation.png'>","null","html-keyboard-response","13","42497","0.0-7.0-0.2","","","","","","","","","","","","","","","","","","","","","","","",""
"546.0000000020955","<img src='stim/b/wheat_with_farmhouse.jpg' width='750px' height='500px'><img style='width:200px; height:200px; margin-bottom: 0px;' src='stim/fixation.png'><img src='stim/b/Trees_with_flowers.jpg' width='750px' height='500px'>","49","html-keyboard-response","14","43045","0.0-7.0-1.2","practice","ef","1","valid","6","e","avoid:lose","48","wheat_with_farmhouse.jpg","Trees_with_flowers.jpg","Trees_with_flowers.jpg","GUID","11","11/12/2020","43","M","right","-3","1","0","-5","losepoints.bmp","B","points"
"null","<img style='border: 5px solid #808080;' src='stim/b/wheat_with_farmhouse.jpg' width='750px' height='500px'><img style='width:150px; height:150px; padding-right: 50px; padding-left: 50px; margin-bottom: 25px;' src='stim/losepoints.bmp'><img style='border: 5px solid #ffffff;  padding-left:15px;' src='stim/b/Trees_with_flowers.jpg' width='750px' height='500px'>","null","html-keyboard-response","15","44047","0.0-7.0-2.2","","","","","","","","","","","","","","","","","","","","","","","",""
"null","<img style='width:200px; height:200px; margin-left: 95px; margin-right: 95px;' src='stim/fixation.png'>","null","html-keyboard-response","16","45047","0.0-7.0-0.3","","","","","","","","","","","","","","","","","","","","","","","",""
"596.0000000013679","<img src='stim/b/African_landscape.jpg' width='750px' height='500px'><img style='width:200px; height:200px; margin-bottom: 0px;' src='stim/fixation.png'><img src='stim/b/closeWater_pines_mountains.jpg' width='750px' height='500px'>","49","html-keyboard-response","17","45645","0.0-7.0-1.3","practice","ab","1","valid","6","a","win:stay","49","African_landscape.jpg","closeWater_pines_mountains.jpg","African_landscape.jpg","GUID","11","11/12/2020","43","M","right","-4","1","1","0","winpoints.bmp","B","points"
"null","<img style='border: 5px solid #808080;' src='stim/b/African_landscape.jpg' width='750px' height='500px'><img style='width:150px; height:150px; padding-right: 50px; padding-left: 50px; margin-bottom: 25px;' src='stim/winpoints.bmp'><img style='border: 5px solid #ffffff;  padding-left:15px;' src='stim/b/closeWater_pines_mountains.jpg' width='750px' height='500px'>","null","html-keyboard-response","18","46648","0.0-7.0-2.3","","","","","","","","","","","","","","","","","","","","","","","",""
"null","<img style='width:200px; height:200px; margin-left: 95px; margin-right: 95px;' src='stim/fixation.png'>","null","html-keyboard-response","19","47650","0.0-7.0-0.4","","","","","","","","","","","","","","","","","","","","","","","",""
"593.9999999973224","<img src='stim/b/Trees_with_flowers.jpg' width='750px' height='500px'><img style='width:200px; height:200px; margin-bottom: 0px;' src='stim/fixation.png'><img src='stim/b/wheat_with_farmhouse.jpg' width='750px' height='500px'>","49","html-keyboard-response","20","48245","0.0-7.0-1.4","practice","ef","1","valid","6","e","avoid:lose","49","Trees_with_flowers.jpg","wheat_with_farmhouse.jpg","Trees_with_flowers.jpg","GUID","11","11/12/2020","43","M","right","-5","1","1","0","keep_points.png","B","points"
"null","<img style='border: 5px solid #808080;' src='stim/b/Trees_with_flowers.jpg' width='750px' height='500px'><img style='width:150px; height:150px; padding-right: 50px; padding-left: 50px; margin-bottom: 25px;' src='stim/keep_points.png'><img style='border: 5px solid #ffffff;  padding-left:15px;' src='stim/b/wheat_with_farmhouse.jpg' width='750px' height='500px'>","null","html-keyboard-response","21","49246","0.0-7.0-2.4","","","","","","","","","","","","","","","","","","","","","","","",""
"null","<img style='width:200px; height:200px; margin-left: 95px; margin-right: 95px;' src='stim/fixation.png'>","null","html-keyboard-response","22","50247","0.0-7.0-0.5","","","","","","","","","","","","","","","","","","","","","","","",""
"868.0000000022119","<img src='stim/b/closeWater_pines_mountains.jpg' width='750px' height='500px'><img style='width:200px; height:200px; margin-bottom: 0px;' src='stim/fixation.png'><img src='stim/b/African_landscape.jpg' width='750px' height='500px'>","48","html-keyboard-response","23","51117","0.0-7.0-1.5","practice","ab","1","valid","6","a","win:stay","48","closeWater_pines_mountains.jpg","African_landscape.jpg","African_landscape.jpg","GUID","11","11/12/2020","43","M","right","-6","1","1","5","winpoints.bmp","B","points"
"null","<img style='border: 5px solid #ffffff; padding-right:15px;' src='stim/b/closeWater_pines_mountains.jpg' width='750px' height='500px'><img style='width:150px; height:150px; padding-right: 50px; padding-left: 50px; margin-bottom: 25px;' src='stim/winpoints.bmp'><img style='border: 5px solid #808080;'src='stim/b/African_landscape.jpg' width='750px' height='500px'>","null","html-keyboard-response","24","52121","0.0-7.0-2.5","","","","","","","","","","","","","","","","","","","","","","","",""
"null","<img style='width:200px; height:200px; margin-left: 95px; margin-right: 95px;' src='stim/fixation.png'>","null","html-keyboard-response","25","53122","0.0-7.0-0.6","","","","","","","","","","","","","","","","","","","","","","","",""
"865.0000000016007","<img src='stim/b/closeWater_pines_mountains.jpg' width='750px' height='500px'><img style='width:200px; height:200px; margin-bottom: 0px;' src='stim/fixation.png'><img src='stim/b/African_landscape.jpg' width='750px' height='500px'>","48","html-keyboard-response","26","53989","0.0-7.0-1.6","practice","ab","1","valid","6","a","win:stay","48","closeWater_pines_mountains.jpg","African_landscape.jpg","African_landscape.jpg","GUID","11","11/12/2020","43","M","right","-7","1","1","10","winpoints.bmp","B","points"
"null","<img style='border: 5px solid #ffffff; padding-right:15px;' src='stim/b/closeWater_pines_mountains.jpg' width='750px' height='500px'><img style='width:150px; height:150px; padding-right: 50px; padding-left: 50px; margin-bottom: 25px;' src='stim/winpoints.bmp'><img style='border: 5px solid #808080;'src='stim/b/African_landscape.jpg' width='750px' height='500px'>","null","html-keyboard-response","27","54993","0.0-7.0-2.6","","","","","","","","","","","","","","","","","","","","","","","",""
"null","<img style='width:200px; height:200px; margin-left: 95px; margin-right: 95px;' src='stim/fixation.png'>","null","html-keyboard-response","28","55994","0.0-7.0-0.7","","","","","","","","","","","","","","","","","","","","","","","",""
"473.00000000177533","<img src='stim/b/wheat_with_farmhouse.jpg' width='750px' height='500px'><img style='width:200px; height:200px; margin-bottom: 0px;' src='stim/fixation.png'><img src='stim/b/Trees_with_flowers.jpg' width='750px' height='500px'>","49","html-keyboard-response","29","56469","0.0-7.0-1.7","practice","ef","1","valid","6","e","avoid:lose","48","wheat_with_farmhouse.jpg","Trees_with_flowers.jpg","Trees_with_flowers.jpg","GUID","11","11/12/2020","43","M","right","-8","1","0","5","losepoints.bmp","B","points"
"null","<img style='border: 5px solid #808080;' src='stim/b/wheat_with_farmhouse.jpg' width='750px' height='500px'><img style='width:150px; height:150px; padding-right: 50px; padding-left: 50px; margin-bottom: 25px;' src='stim/losepoints.bmp'><img style='border: 5px solid #ffffff;  padding-left:15px;' src='stim/b/Trees_with_flowers.jpg' width='750px' height='500px'>","null","html-keyboard-response","30","57471","0.0-7.0-2.7","","","","","","","","","","","","","","","","","","","","","","","",""
"null","<img style='width:200px; height:200px; margin-left: 95px; margin-right: 95px;' src='stim/fixation.png'>","null","html-keyboard-response","31","58471","0.0-7.0-0.8","","","","","","","","","","","","","","","","","","","","","","","",""
"777.0000000018626","<img src='stim/b/Trees_with_flowers.jpg' width='750px' height='500px'><img style='width:200px; height:200px; margin-bottom: 0px;' src='stim/fixation.png'><img src='stim/b/wheat_with_farmhouse.jpg' width='750px' height='500px'>","49","html-keyboard-response","32","59254","0.0-7.0-1.8","practice","ef","1","valid","6","e","avoid:lose","49","Trees_with_flowers.jpg","wheat_with_farmhouse.jpg","Trees_with_flowers.jpg","GUID","11","11/12/2020","43","M","right","-9","1","1","5","keep_points.png","B","points"
"null","<img style='border: 5px solid #808080;' src='stim/b/Trees_with_flowers.jpg' width='750px' height='500px'><img style='width:150px; height:150px; padding-right: 50px; padding-left: 50px; margin-bottom: 25px;' src='stim/keep_points.png'><img style='border: 5px solid #ffffff;  padding-left:15px;' src='stim/b/wheat_with_farmhouse.jpg' width='750px' height='500px'>","null","html-keyboard-response","33","60256","0.0-7.0-2.8","","","","","","","","","","","","","","","","","","","","","","","",""
"null","<img style='width:200px; height:200px; margin-left: 95px; margin-right: 95px;' src='stim/fixation.png'>","null","html-keyboard-response","34","61258","0.0-7.0-0.9","","","","","","","","","","","","","","","","","","","","","","","",""
"744.9999999989814","<img src='stim/b/African_landscape.jpg' width='750px' height='500px'><img style='width:200px; height:200px; margin-bottom: 0px;' src='stim/fixation.png'><img src='stim/b/closeWater_pines_mountains.jpg' width='750px' height='500px'>","49","html-keyboard-response","35","62005","0.0-7.0-1.9","practice","ab","1","valid","6","a","win:stay","49","African_landscape.jpg","closeWater_pines_mountains.jpg","African_landscape.jpg","GUID","11","11/12/2020","43","M","right","-10","1","1","10","winpoints.bmp","B","points"
"null","<img style='border: 5px solid #808080;' src='stim/b/African_landscape.jpg' width='750px' height='500px'><img style='width:150px; height:150px; padding-right: 50px; padding-left: 50px; margin-bottom: 25px;' src='stim/winpoints.bmp'><img style='border: 5px solid #ffffff;  padding-left:15px;' src='stim/b/closeWater_pines_mountains.jpg' width='750px' height='500px'>","null","html-keyboard-response","36","63009","0.0-7.0-2.9","","","","","","","","","","","","","","","","","","","","","","","",""
"null","<img style='width:200px; height:200px; margin-left: 95px; margin-right: 95px;' src='stim/fixation.png'>","null","html-keyboard-response","37","64011","0.0-7.0-0.10","","","","","","","","","","","","","","","","","","","","","","","",""
"617.0000000020082","<img src='stim/b/closeWater_pines_mountains.jpg' width='750px' height='500px'><img style='width:200px; height:200px; margin-bottom: 0px;' src='stim/fixation.png'><img src='stim/b/African_landscape.jpg' width='750px' height='500px'>","48","html-keyboard-response","38","64629","0.0-7.0-1.10","practice","ab","1","valid","6","a","win:stay","48","closeWater_pines_mountains.jpg","African_landscape.jpg","African_landscape.jpg","GUID","11","11/12/2020","43","M","right","-11","1","1","15","winpoints.bmp","B","points"
"null","<img style='border: 5px solid #ffffff; padding-right:15px;' src='stim/b/closeWater_pines_mountains.jpg' width='750px' height='500px'><img style='width:150px; height:150px; padding-right: 50px; padding-left: 50px; margin-bottom: 25px;' src='stim/winpoints.bmp'><img style='border: 5px solid #808080;'src='stim/b/African_landscape.jpg' width='750px' height='500px'>","null","html-keyboard-response","39","65632","0.0-7.0-2.10","","","","","","","","","","","","","","","","","","","","","","","",""
"null","<img style='width:200px; height:200px; margin-left: 95px; margin-right: 95px;' src='stim/fixation.png'>","null","html-keyboard-response","40","66634","0.0-7.0-0.11","","","","","","","","","","","","","","","","","","","","","","","",""
"625.9999999965657","<img src='stim/b/Trees_with_flowers.jpg' width='750px' height='500px'><img style='width:200px; height:200px; margin-bottom: 0px;' src='stim/fixation.png'><img src='stim/b/wheat_with_farmhouse.jpg' width='750px' height='500px'>","48","html-keyboard-response","41","67261","0.0-7.0-1.11","practice","ef","1","valid","6","e","avoid:lose","49","Trees_with_flowers.jpg","wheat_with_farmhouse.jpg","Trees_with_flowers.jpg","GUID","11","11/12/2020","43","M","right","-12","1","0","10","losepoints.bmp","B","points"
"null","<img style='border: 5px solid #ffffff; padding-right:15px;' src='stim/b/Trees_with_flowers.jpg' width='750px' height='500px'><img style='width:150px; height:150px; padding-right: 50px; padding-left: 50px; margin-bottom: 25px;' src='stim/losepoints.bmp'><img style='border: 5px solid #808080;'src='stim/b/wheat_with_farmhouse.jpg' width='750px' height='500px'>","null","html-keyboard-response","42","68263","0.0-7.0-2.11","","","","","","","","","","","","","","","","","","","","","","","",""
"889.0000000028522","<p>Great!</p> <p>Press the spacebar to continue.</p>","32","html-keyboard-response","43","69653","0.0-8.0","","","","","","","","","","","","","","","","","","","","","","","",""
"2030.9999999990396","<p>Now you will see some more pictures.</p><p>Do as before by pressing the 1 to choose the picture on the left, and pressing the 0 to choose the picture on the right.</p><p>Press the spacebar to continue.</p>","32","html-keyboard-response","44","71685","0.0-9.0","","","","","","","","","","","","","","","","","","","","","","","",""
"10502.999999996973","<h3 style=""color:red;"">For the picture pairs where you can win points:</h3><p>You will not win every time you choose the ""best"" picture;</p><p>However, one picture gets rewarded much more often than the other picture.</p><h3 style=""color:red;"">For the picture pairs where the best you can do is keep your points:</h3><p>You will not be able to keep your points every time you choose the ""best"" picture;</p><p>However, one picture allows you to keep your points much more often than the other picture.</p><p>Press the spacebar to continue.</p>","32","html-keyboard-response","45","82189","0.0-10.0","","","","","","","","","","","","","","","","","","","","","","","",""
"7070.999999999913","<p>There is no ABSOLUTE right answer for any pair of pictures, but some pictures have a higher chance of either winning you some money or preventing you from losing money.</p><p>Try to pick the picture that you think is best.<p><p>Once you decide which picture in a pair of pictures is better, stick with it for the rest of the experiment (unless you determine that you were initially wrong about the selection).</p><p>Press the spacebar when you are ready to begin.</p>","32","html-keyboard-response","46","89261","0.0-11.0","","","","","","","","","","","","","","","","","","","","","","","",""
"null","<img style='width:200px; height:200px; margin-left: 95px; margin-right: 95px;' src='stim/fixation.png'>","null","html-keyboard-response","47","89762","0.0-12.0-0.0","","","","","","","","","","","","","","","","","","","","","","","",""
"719.0000000009604","<img src='stim/b/2822landscape.jpg' width='750px' height='500px'><img style='width:200px; height:200px; margin-bottom: 0px;' src='stim/fixation.png'><img src='stim/b/3d-landscape-background-10.jpg' width='750px' height='500px'>","49","html-keyboard-response","48","90485","0.0-12.0-1.0","training","ab","0.9","valid","10","a","win:stay","48","2822landscape.jpg","3d-landscape-background-10.jpg","3d-landscape-background-10.jpg","GUID","11","11/12/2020","43","M","right","1","1","0","10","not_winner.png","B","points"
"null","<img style='border: 5px solid #808080;' src='stim/b/2822landscape.jpg' width='750px' height='500px'><img style='width:150px; height:150px; padding-right: 50px; padding-left: 50px; margin-bottom: 25px;' src='stim/not_winner.png'><img style='border: 5px solid #ffffff;  padding-left:15px;' src='stim/b/3d-landscape-background-10.jpg' width='750px' height='500px'>","null","html-keyboard-response","49","91488","0.0-12.0-2.0","","","","","","","","","","","","","","","","","","","","","","","",""
"null","<img style='width:200px; height:200px; margin-left: 95px; margin-right: 95px;' src='stim/fixation.png'>","null","html-keyboard-response","50","92488","0.0-12.0-0.1","","","","","","","","","","","","","","","","","","","","","","","",""
"929.9999999966531","<img src='stim/b/water_pines_distantMountains.jpg' width='750px' height='500px'><img style='width:200px; height:200px; margin-bottom: 0px;' src='stim/fixation.png'><img src='stim/b/water_fall_images.jpg' width='750px' height='500px'>","48","html-keyboard-response","51","93421","0.0-12.0-1.1","training","ef","0.9","invalid","10","e","avoid:lose","48","water_pines_distantMountains.jpg","water_fall_images.jpg","water_fall_images.jpg","GUID","11","11/12/2020","43","M","right","2","1","1","5","losepoints.bmp","B","points"
"null","<img style='border: 5px solid #ffffff; padding-right:15px;' src='stim/b/water_pines_distantMountains.jpg' width='750px' height='500px'><img style='width:150px; height:150px; padding-right: 50px; padding-left: 50px; margin-bottom: 25px;' src='stim/losepoints.bmp'><img style='border: 5px solid #808080;'src='stim/b/water_fall_images.jpg' width='750px' height='500px'>","null","html-keyboard-response","52","94424","0.0-12.0-2.1","","","","","","","","","","","","","","","","","","","","","","","",""
"null","<img style='width:200px; height:200px; margin-left: 95px; margin-right: 95px;' src='stim/fixation.png'>","null","html-keyboard-response","53","95424","0.0-12.0-0.2","","","","","","","","","","","","","","","","","","","","","","","",""
"1451.0000000009313","<img src='stim/b/lsingeltree_tallergrass_clouds.jpg' width='750px' height='500px'><img style='width:200px; height:200px; margin-bottom: 0px;' src='stim/fixation.png'><img src='stim/b/orangey_field.jpg' width='750px' height='500px'>","48","html-keyboard-response","54","96877","0.0-12.0-1.2","training","cd","0.8","invalid","10","c","win:stay","49","lsingeltree_tallergrass_clouds.jpg","orangey_field.jpg","lsingeltree_tallergrass_clouds.jpg","GUID","11","11/12/2020","43","M","right","3","1","0","10","winpoints.bmp","B","points"
"null","<img style='border: 5px solid #ffffff; padding-right:15px;' src='stim/b/lsingeltree_tallergrass_clouds.jpg' width='750px' height='500px'><img style='width:150px; height:150px; padding-right: 50px; padding-left: 50px; margin-bottom: 25px;' src='stim/winpoints.bmp'><img style='border: 5px solid #808080;'src='stim/b/orangey_field.jpg' width='750px' height='500px'>","null","html-keyboard-response","55","97880","0.0-12.0-2.2","","","","","","","","","","","","","","","","","","","","","","","",""
"null","<img style='width:200px; height:200px; margin-left: 95px; margin-right: 95px;' src='stim/fixation.png'>","null","html-keyboard-response","56","98882","0.0-12.0-0.3","","","","","","","","","","","","","","","","","","","","","","","",""
"1753.999999997177","<img src='stim/b/waterfall_waterBelow.jpg' width='750px' height='500px'><img style='width:200px; height:200px; margin-bottom: 0px;' src='stim/fixation.png'><img src='stim/b/water_pines_snowy_moutain.jpg' width='750px' height='500px'>","49","html-keyboard-response","57","100637","0.0-12.0-1.3","training","gh","0.8","valid","10","g","avoid:lose","48","waterfall_waterBelow.jpg","water_pines_snowy_moutain.jpg","water_pines_snowy_moutain.jpg","GUID","11","11/12/2020","43","M","right","4","1","0","5","losepoints.bmp","B","points"
"null","<img style='border: 5px solid #808080;' src='stim/b/waterfall_waterBelow.jpg' width='750px' height='500px'><img style='width:150px; height:150px; padding-right: 50px; padding-left: 50px; margin-bottom: 25px;' src='stim/losepoints.bmp'><img style='border: 5px solid #ffffff;  padding-left:15px;' src='stim/b/water_pines_snowy_moutain.jpg' width='750px' height='500px'>","null","html-keyboard-response","58","101639","0.0-12.0-2.3","","","","","","","","","","","","","","","","","","","","","","","",""
"null","<img style='width:200px; height:200px; margin-left: 95px; margin-right: 95px;' src='stim/fixation.png'>","null","html-keyboard-response","59","102640","0.0-12.0-0.4","","","","","","","","","","","","","","","","","","","","","","","",""
"830.0000000017462","<img src='stim/b/waterfall_waterBelow.jpg' width='750px' height='500px'><img style='width:200px; height:200px; margin-bottom: 0px;' src='stim/fixation.png'><img src='stim/b/water_pines_snowy_moutain.jpg' width='750px' height='500px'>","48","html-keyboard-response","60","103471","0.0-12.0-1.4","training","gh","0.8","invalid","10","g","avoid:lose","48","waterfall_waterBelow.jpg","water_pines_snowy_moutain.jpg","water_pines_snowy_moutain.jpg","GUID","11","11/12/2020","43","M","right","5","1","1","0","losepoints.bmp","B","points"
"null","<img style='border: 5px solid #ffffff; padding-right:15px;' src='stim/b/waterfall_waterBelow.jpg' width='750px' height='500px'><img style='width:150px; height:150px; padding-right: 50px; padding-left: 50px; margin-bottom: 25px;' src='stim/losepoints.bmp'><img style='border: 5px solid #808080;'src='stim/b/water_pines_snowy_moutain.jpg' width='750px' height='500px'>","null","html-keyboard-response","61","104475","0.0-12.0-2.4","","","","","","","","","","","","","","","","","","","","","","","",""
"null","<img style='width:200px; height:200px; margin-left: 95px; margin-right: 95px;' src='stim/fixation.png'>","null","html-keyboard-response","62","105475","0.0-12.0-0.5","","","","","","","","","","","","","","","","","","","","","","","",""
"758.0000000016298","<img src='stim/b/water_fall_images.jpg' width='750px' height='500px'><img style='width:200px; height:200px; margin-bottom: 0px;' src='stim/fixation.png'><img src='stim/b/water_pines_distantMountains.jpg' width='750px' height='500px'>","48","html-keyboard-response","63","106237","0.0-12.0-1.5","training","ef","0.9","valid","10","e","avoid:lose","49","water_fall_images.jpg","water_pines_distantMountains.jpg","water_fall_images.jpg","GUID","11","11/12/2020","43","M","right","6","1","0","-5","losepoints.bmp","B","points"
"null","<img style='border: 5px solid #ffffff; padding-right:15px;' src='stim/b/water_fall_images.jpg' width='750px' height='500px'><img style='width:150px; height:150px; padding-right: 50px; padding-left: 50px; margin-bottom: 25px;' src='stim/losepoints.bmp'><img style='border: 5px solid #808080;'src='stim/b/water_pines_distantMountains.jpg' width='750px' height='500px'>","null","html-keyboard-response","64","107240","0.0-12.0-2.5","","","","","","","","","","","","","","","","","","","","","","","",""
"null","<img style='width:200px; height:200px; margin-left: 95px; margin-right: 95px;' src='stim/fixation.png'>","null","html-keyboard-response","65","108241","0.0-12.0-0.6","","","","","","","","","","","","","","","","","","","","","","","",""
"794.000000001688","<img src='stim/b/orangey_field.jpg' width='750px' height='500px'><img style='width:200px; height:200px; margin-bottom: 0px;' src='stim/fixation.png'><img src='stim/b/lsingeltree_tallergrass_clouds.jpg' width='750px' height='500px'>","49","html-keyboard-response","66","109037","0.0-12.0-1.6","training","cd","0.8","valid","10","c","win:stay","48","orangey_field.jpg","lsingeltree_tallergrass_clouds.jpg","lsingeltree_tallergrass_clouds.jpg","GUID","11","11/12/2020","43","M","right","7","1","0","-5","not_winner.png","B","points"
"null","<img style='border: 5px solid #808080;' src='stim/b/orangey_field.jpg' width='750px' height='500px'><img style='width:150px; height:150px; padding-right: 50px; padding-left: 50px; margin-bottom: 25px;' src='stim/not_winner.png'><img style='border: 5px solid #ffffff;  padding-left:15px;' src='stim/b/lsingeltree_tallergrass_clouds.jpg' width='750px' height='500px'>","null","html-keyboard-response","67","110038","0.0-12.0-2.6","","","","","","","","","","","","","","","","","","","","","","","",""
"null","<img style='width:200px; height:200px; margin-left: 95px; margin-right: 95px;' src='stim/fixation.png'>","null","html-keyboard-response","68","111039","0.0-12.0-0.7","","","","","","","","","","","","","","","","","","","","","","","",""
"1307.9999999972642","<img src='stim/b/2822landscape.jpg' width='750px' height='500px'><img style='width:200px; height:200px; margin-bottom: 0px;' src='stim/fixation.png'><img src='stim/b/3d-landscape-background-10.jpg' width='750px' height='500px'>","49","html-keyboard-response","69","112350","0.0-12.0-1.7","training","ab","0.9","valid","10","a","win:stay","48","2822landscape.jpg","3d-landscape-background-10.jpg","3d-landscape-background-10.jpg","GUID","11","11/12/2020","43","M","right","8","1","0","-5","not_winner.png","B","points"
"null","<img style='border: 5px solid #808080;' src='stim/b/2822landscape.jpg' width='750px' height='500px'><img style='width:150px; height:150px; padding-right: 50px; padding-left: 50px; margin-bottom: 25px;' src='stim/not_winner.png'><img style='border: 5px solid #ffffff;  padding-left:15px;' src='stim/b/3d-landscape-background-10.jpg' width='750px' height='500px'>","null","html-keyboard-response","70","113351","0.0-12.0-2.7","","","","","","","","","","","","","","","","","","","","","","","",""
"null","<img style='width:200px; height:200px; margin-left: 95px; margin-right: 95px;' src='stim/fixation.png'>","null","html-keyboard-response","71","114352","0.0-12.0-0.8","","","","","","","","","","","","","","","","","","","","","","","",""
"866.0000000018044","<img src='stim/b/water_pines_distantMountains.jpg' width='750px' height='500px'><img style='width:200px; height:200px; margin-bottom: 0px;' src='stim/fixation.png'><img src='stim/b/water_fall_images.jpg' width='750px' height='500px'>","49","html-keyboard-response","72","115221","0.0-12.0-1.8","training","ef","0.9","valid","10","e","avoid:lose","48","water_pines_distantMountains.jpg","water_fall_images.jpg","water_fall_images.jpg","GUID","11","11/12/2020","43","M","right","9","1","0","-10","losepoints.bmp","B","points"
"null","<img style='border: 5px solid #808080;' src='stim/b/water_pines_distantMountains.jpg' width='750px' height='500px'><img style='width:150px; height:150px; padding-right: 50px; padding-left: 50px; margin-bottom: 25px;' src='stim/losepoints.bmp'><img style='border: 5px solid #ffffff;  padding-left:15px;' src='stim/b/water_fall_images.jpg' width='750px' height='500px'>","null","html-keyboard-response","73","116225","0.0-12.0-2.8","","","","","","","","","","","","","","","","","","","","","","","",""
"null","<img style='width:200px; height:200px; margin-left: 95px; margin-right: 95px;' src='stim/fixation.png'>","null","html-keyboard-response","74","117226","0.0-12.0-0.9","","","","","","","","","","","","","","","","","","","","","","","",""
"755.0000000010186","<img src='stim/b/orangey_field.jpg' width='750px' height='500px'><img style='width:200px; height:200px; margin-bottom: 0px;' src='stim/fixation.png'><img src='stim/b/lsingeltree_tallergrass_clouds.jpg' width='750px' height='500px'>","49","html-keyboard-response","75","117983","0.0-12.0-1.9","training","cd","0.8","valid","10","c","win:stay","48","orangey_field.jpg","lsingeltree_tallergrass_clouds.jpg","lsingeltree_tallergrass_clouds.jpg","GUID","11","11/12/2020","43","M","right","10","1","0","-10","not_winner.png","B","points"
"null","<img style='border: 5px solid #808080;' src='stim/b/orangey_field.jpg' width='750px' height='500px'><img style='width:150px; height:150px; padding-right: 50px; padding-left: 50px; margin-bottom: 25px;' src='stim/not_winner.png'><img style='border: 5px solid #ffffff;  padding-left:15px;' src='stim/b/lsingeltree_tallergrass_clouds.jpg' width='750px' height='500px'>","null","html-keyboard-response","76","118986","0.0-12.0-2.9","","","","","","","","","","","","","","","","","","","","","","","",""
"null","<img style='width:200px; height:200px; margin-left: 95px; margin-right: 95px;' src='stim/fixation.png'>","null","html-keyboard-response","77","119988","0.0-12.0-0.10","","","","","","","","","","","","","","","","","","","","","","","",""
"1246.9999999993888","<img src='stim/b/3d-landscape-background-10.jpg' width='750px' height='500px'><img style='width:200px; height:200px; margin-bottom: 0px;' src='stim/fixation.png'><img src='stim/b/2822landscape.jpg' width='750px' height='500px'>","49","html-keyboard-response","78","121237","0.0-12.0-1.10","training","ab","0.9","valid","10","a","win:stay","49","3d-landscape-background-10.jpg","2822landscape.jpg","3d-landscape-background-10.jpg","GUID","11","11/12/2020","43","M","right","11","1","1","-5","winpoints.bmp","B","points"
"null","<img style='border: 5px solid #808080;' src='stim/b/3d-landscape-background-10.jpg' width='750px' height='500px'><img style='width:150px; height:150px; padding-right: 50px; padding-left: 50px; margin-bottom: 25px;' src='stim/winpoints.bmp'><img style='border: 5px solid #ffffff;  padding-left:15px;' src='stim/b/2822landscape.jpg' width='750px' height='500px'>","null","html-keyboard-response","79","122241","0.0-12.0-2.10","","","","","","","","","","","","","","","","","","","","","","","",""
"null","<img style='width:200px; height:200px; margin-left: 95px; margin-right: 95px;' src='stim/fixation.png'>","null","html-keyboard-response","80","123242","0.0-12.0-0.11","","","","","","","","","","","","","","","","","","","","","","","",""
"1689.0000000021246","<img src='stim/b/water_pines_snowy_moutain.jpg' width='750px' height='500px'><img style='width:200px; height:200px; margin-bottom: 0px;' src='stim/fixation.png'><img src='stim/b/waterfall_waterBelow.jpg' width='750px' height='500px'>","49","html-keyboard-response","81","124933","0.0-12.0-1.11","training","gh","0.8","valid","10","g","avoid:lose","49","waterfall_waterBelow.jpg","water_pines_snowy_moutain.jpg","water_pines_snowy_moutain.jpg","GUID","11","11/12/2020","43","M","right","12","1","1","-5","keep_points.png","B","points"
"null","<img style='border: 5px solid #808080;' src='stim/b/water_pines_snowy_moutain.jpg' width='750px' height='500px'><img style='width:150px; height:150px; padding-right: 50px; padding-left: 50px; margin-bottom: 25px;' src='stim/keep_points.png'><img style='border: 5px solid #ffffff;  padding-left:15px;' src='stim/b/waterfall_waterBelow.jpg' width='750px' height='500px'>","null","html-keyboard-response","82","125934","0.0-12.0-2.11","","","","","","","","","","","","","","","","","","","","","","","",""
"null","<img style='width:200px; height:200px; margin-left: 95px; margin-right: 95px;' src='stim/fixation.png'>","null","html-keyboard-response","83","126935","0.0-12.0-0.12","","","","","","","","","","","","","","","","","","","","","","","",""
"763.9999999992142","<img src='stim/b/3d-landscape-background-10.jpg' width='750px' height='500px'><img style='width:200px; height:200px; margin-bottom: 0px;' src='stim/fixation.png'><img src='stim/b/2822landscape.jpg' width='750px' height='500px'>","49","html-keyboard-response","84","127701","0.0-12.0-1.12","training","ab","0.9","invalid","10","a","win:stay","49","3d-landscape-background-10.jpg","2822landscape.jpg","3d-landscape-background-10.jpg","GUID","11","11/12/2020","43","M","right","13","1","1","-5","not_winner.png","B","points"
"null","<img style='border: 5px solid #808080;' src='stim/b/3d-landscape-background-10.jpg' width='750px' height='500px'><img style='width:150px; height:150px; padding-right: 50px; padding-left: 50px; margin-bottom: 25px;' src='stim/not_winner.png'><img style='border: 5px solid #ffffff;  padding-left:15px;' src='stim/b/2822landscape.jpg' width='750px' height='500px'>","null","html-keyboard-response","85","128702","0.0-12.0-2.12","","","","","","","","","","","","","","","","","","","","","","","",""
"null","<img style='width:200px; height:200px; margin-left: 95px; margin-right: 95px;' src='stim/fixation.png'>","null","html-keyboard-response","86","129703","0.0-12.0-0.13","","","","","","","","","","","","","","","","","","","","","","","",""
"1282.999999999447","<img src='stim/b/water_pines_snowy_moutain.jpg' width='750px' height='500px'><img style='width:200px; height:200px; margin-bottom: 0px;' src='stim/fixation.png'><img src='stim/b/waterfall_waterBelow.jpg' width='750px' height='500px'>","49","html-keyboard-response","87","130988","0.0-12.0-1.13","training","gh","0.8","valid","10","g","avoid:lose","49","waterfall_waterBelow.jpg","water_pines_snowy_moutain.jpg","water_pines_snowy_moutain.jpg","GUID","11","11/12/2020","43","M","right","14","1","1","-5","keep_points.png","B","points"
"null","<img style='border: 5px solid #808080;' src='stim/b/water_pines_snowy_moutain.jpg' width='750px' height='500px'><img style='width:150px; height:150px; padding-right: 50px; padding-left: 50px; margin-bottom: 25px;' src='stim/keep_points.png'><img style='border: 5px solid #ffffff;  padding-left:15px;' src='stim/b/waterfall_waterBelow.jpg' width='750px' height='500px'>","null","html-keyboard-response","88","131989","0.0-12.0-2.13","","","","","","","","","","","","","","","","","","","","","","","",""
"null","<img style='width:200px; height:200px; margin-left: 95px; margin-right: 95px;' src='stim/fixation.png'>","null","html-keyboard-response","89","132990","0.0-12.0-0.14","","","","","","","","","","","","","","","","","","","","","","","",""
"1086.9999999995343","<img src='stim/b/lsingeltree_tallergrass_clouds.jpg' width='750px' height='500px'><img style='width:200px; height:200px; margin-bottom: 0px;' src='stim/fixation.png'><img src='stim/b/orangey_field.jpg' width='750px' height='500px'>","48","html-keyboard-response","90","134079","0.0-12.0-1.14","training","cd","0.8","valid","10","c","win:stay","49","lsingeltree_tallergrass_clouds.jpg","orangey_field.jpg","lsingeltree_tallergrass_clouds.jpg","GUID","11","11/12/2020","43","M","right","15","1","0","-5","not_winner.png","B","points"
"null","<img style='border: 5px solid #ffffff; padding-right:15px;' src='stim/b/lsingeltree_tallergrass_clouds.jpg' width='750px' height='500px'><img style='width:150px; height:150px; padding-right: 50px; padding-left: 50px; margin-bottom: 25px;' src='stim/not_winner.png'><img style='border: 5px solid #808080;'src='stim/b/orangey_field.jpg' width='750px' height='500px'>","null","html-keyboard-response","91","135081","0.0-12.0-2.14","","","","","","","","","","","","","","","","","","","","","","","",""
"null","<img style='width:200px; height:200px; margin-left: 95px; margin-right: 95px;' src='stim/fixation.png'>","null","html-keyboard-response","92","136082","0.0-12.0-0.15","","","","","","","","","","","","","","","","","","","","","","","",""
"1120.0000000026193","<img src='stim/b/water_fall_images.jpg' width='750px' height='500px'><img style='width:200px; height:200px; margin-bottom: 0px;' src='stim/fixation.png'><img src='stim/b/water_pines_distantMountains.jpg' width='750px' height='500px'>","48","html-keyboard-response","93","137205","0.0-12.0-1.15","training","ef","0.9","valid","10","e","avoid:lose","49","water_fall_images.jpg","water_pines_distantMountains.jpg","water_fall_images.jpg","GUID","11","11/12/2020","43","M","right","16","1","0","-10","losepoints.bmp","B","points"
"null","<img style='border: 5px solid #ffffff; padding-right:15px;' src='stim/b/water_fall_images.jpg' width='750px' height='500px'><img style='width:150px; height:150px; padding-right: 50px; padding-left: 50px; margin-bottom: 25px;' src='stim/losepoints.bmp'><img style='border: 5px solid #808080;'src='stim/b/water_pines_distantMountains.jpg' width='750px' height='500px'>","null","html-keyboard-response","94","138209","0.0-12.0-2.15","","","","","","","","","","","","","","","","","","","","","","","",""
"null","<img style='width:200px; height:200px; margin-left: 95px; margin-right: 95px;' src='stim/fixation.png'>","null","html-keyboard-response","95","139210","0.0-12.0-0.16","","","","","","","","","","","","","","","","","","","","","","","",""
"739.000000001397","<img src='stim/b/orangey_field.jpg' width='750px' height='500px'><img style='width:200px; height:200px; margin-bottom: 0px;' src='stim/fixation.png'><img src='stim/b/lsingeltree_tallergrass_clouds.jpg' width='750px' height='500px'>","49","html-keyboard-response","96","139951","0.0-12.0-1.16","training","cd","0.8","valid","10","c","win:stay","48","orangey_field.jpg","lsingeltree_tallergrass_clouds.jpg","lsingeltree_tallergrass_clouds.jpg","GUID","11","11/12/2020","43","M","right","17","1","0","-10","not_winner.png","B","points"
"null","<img style='border: 5px solid #808080;' src='stim/b/orangey_field.jpg' width='750px' height='500px'><img style='width:150px; height:150px; padding-right: 50px; padding-left: 50px; margin-bottom: 25px;' src='stim/not_winner.png'><img style='border: 5px solid #ffffff;  padding-left:15px;' src='stim/b/lsingeltree_tallergrass_clouds.jpg' width='750px' height='500px'>","null","html-keyboard-response","97","140953","0.0-12.0-2.16","","","","","","","","","","","","","","","","","","","","","","","",""
"null","<img style='width:200px; height:200px; margin-left: 95px; margin-right: 95px;' src='stim/fixation.png'>","null","html-keyboard-response","98","141955","0.0-12.0-0.17","","","","","","","","","","","","","","","","","","","","","","","",""
"608.0000000001746","<img src='stim/b/2822landscape.jpg' width='750px' height='500px'><img style='width:200px; height:200px; margin-bottom: 0px;' src='stim/fixation.png'><img src='stim/b/3d-landscape-background-10.jpg' width='750px' height='500px'>","48","html-keyboard-response","99","142565","0.0-12.0-1.17","training","ab","0.9","valid","10","a","win:stay","48","2822landscape.jpg","3d-landscape-background-10.jpg","3d-landscape-background-10.jpg","GUID","11","11/12/2020","43","M","right","18","1","1","-5","winpoints.bmp","B","points"
"null","<img style='border: 5px solid #ffffff; padding-right:15px;' src='stim/b/2822landscape.jpg' width='750px' height='500px'><img style='width:150px; height:150px; padding-right: 50px; padding-left: 50px; margin-bottom: 25px;' src='stim/winpoints.bmp'><img style='border: 5px solid #808080;'src='stim/b/3d-landscape-background-10.jpg' width='750px' height='500px'>","null","html-keyboard-response","100","143569","0.0-12.0-2.17","","","","","","","","","","","","","","","","","","","","","","","",""
"null","<img style='width:200px; height:200px; margin-left: 95px; margin-right: 95px;' src='stim/fixation.png'>","null","html-keyboard-response","101","144571","0.0-12.0-0.18","","","","","","","","","","","","","","","","","","","","","","","",""
"1031.9999999992433","<img src='stim/b/water_pines_snowy_moutain.jpg' width='750px' height='500px'><img style='width:200px; height:200px; margin-bottom: 0px;' src='stim/fixation.png'><img src='stim/b/waterfall_waterBelow.jpg' width='750px' height='500px'>","48","html-keyboard-response","102","145606","0.0-12.0-1.18","training","gh","0.8","invalid","10","g","avoid:lose","49","waterfall_waterBelow.jpg","water_pines_snowy_moutain.jpg","water_pines_snowy_moutain.jpg","GUID","11","11/12/2020","43","M","right","19","1","0","-5","keep_points.png","B","points"
"null","<img style='border: 5px solid #ffffff; padding-right:15px;' src='stim/b/water_pines_snowy_moutain.jpg' width='750px' height='500px'><img style='width:150px; height:150px; padding-right: 50px; padding-left: 50px; margin-bottom: 25px;' src='stim/keep_points.png'><img style='border: 5px solid #808080;'src='stim/b/waterfall_waterBelow.jpg' width='750px' height='500px'>","null","html-keyboard-response","103","146608","0.0-12.0-2.18","","","","","","","","","","","","","","","","","","","","","","","",""
"null","<img style='width:200px; height:200px; margin-left: 95px; margin-right: 95px;' src='stim/fixation.png'>","null","html-keyboard-response","104","147609","0.0-12.0-0.19","","","","","","","","","","","","","","","","","","","","","","","",""
"720.9999999977299","<img src='stim/b/water_pines_distantMountains.jpg' width='750px' height='500px'><img style='width:200px; height:200px; margin-bottom: 0px;' src='stim/fixation.png'><img src='stim/b/water_fall_images.jpg' width='750px' height='500px'>","48","html-keyboard-response","105","148333","0.0-12.0-1.19","training","ef","0.9","valid","10","e","avoid:lose","48","water_pines_distantMountains.jpg","water_fall_images.jpg","water_fall_images.jpg","GUID","11","11/12/2020","43","M","right","20","1","1","-5","keep_points.png","B","points"
"null","<img style='border: 5px solid #ffffff; padding-right:15px;' src='stim/b/water_pines_distantMountains.jpg' width='750px' height='500px'><img style='width:150px; height:150px; padding-right: 50px; padding-left: 50px; margin-bottom: 25px;' src='stim/keep_points.png'><img style='border: 5px solid #808080;'src='stim/b/water_fall_images.jpg' width='750px' height='500px'>","null","html-keyboard-response","106","149335","0.0-12.0-2.19","","","","","","","","","","","","","","","","","","","","","","","",""
"null","<img style='width:200px; height:200px; margin-left: 95px; margin-right: 95px;' src='stim/fixation.png'>","null","html-keyboard-response","107","150335","0.0-12.0-0.20","","","","","","","","","","","","","","","","","","","","","","","",""
"541.0000000010768","<img src='stim/b/water_pines_distantMountains.jpg' width='750px' height='500px'><img style='width:200px; height:200px; margin-bottom: 0px;' src='stim/fixation.png'><img src='stim/b/water_fall_images.jpg' width='750px' height='500px'>","48","html-keyboard-response","108","150878","0.0-12.0-1.20","training","ef","0.9","valid","10","e","avoid:lose","48","water_pines_distantMountains.jpg","water_fall_images.jpg","water_fall_images.jpg","GUID","11","11/12/2020","43","M","right","21","1","1","-5","keep_points.png","B","points"
"null","<img style='border: 5px solid #ffffff; padding-right:15px;' src='stim/b/water_pines_distantMountains.jpg' width='750px' height='500px'><img style='width:150px; height:150px; padding-right: 50px; padding-left: 50px; margin-bottom: 25px;' src='stim/keep_points.png'><img style='border: 5px solid #808080;'src='stim/b/water_fall_images.jpg' width='750px' height='500px'>","null","html-keyboard-response","109","151880","0.0-12.0-2.20","","","","","","","","","","","","","","","","","","","","","","","",""
"null","<img style='width:200px; height:200px; margin-left: 95px; margin-right: 95px;' src='stim/fixation.png'>","null","html-keyboard-response","110","152881","0.0-12.0-0.21","","","","","","","","","","","","","","","","","","","","","","","",""
"673.9999999990687","<img src='stim/b/3d-landscape-background-10.jpg' width='750px' height='500px'><img style='width:200px; height:200px; margin-bottom: 0px;' src='stim/fixation.png'><img src='stim/b/2822landscape.jpg' width='750px' height='500px'>","49","html-keyboard-response","111","153557","0.0-12.0-1.21","training","ab","0.9","valid","10","a","win:stay","49","3d-landscape-background-10.jpg","2822landscape.jpg","3d-landscape-background-10.jpg","GUID","11","11/12/2020","43","M","right","22","1","1","0","winpoints.bmp","B","points"
"null","<img style='border: 5px solid #808080;' src='stim/b/3d-landscape-background-10.jpg' width='750px' height='500px'><img style='width:150px; height:150px; padding-right: 50px; padding-left: 50px; margin-bottom: 25px;' src='stim/winpoints.bmp'><img style='border: 5px solid #ffffff;  padding-left:15px;' src='stim/b/2822landscape.jpg' width='750px' height='500px'>","null","html-keyboard-response","112","154560","0.0-12.0-2.21","","","","","","","","","","","","","","","","","","","","","","","",""
"null","<img style='width:200px; height:200px; margin-left: 95px; margin-right: 95px;' src='stim/fixation.png'>","null","html-keyboard-response","113","155561","0.0-12.0-0.22","","","","","","","","","","","","","","","","","","","","","","","",""
"1192.9999999993015","<img src='stim/b/waterfall_waterBelow.jpg' width='750px' height='500px'><img style='width:200px; height:200px; margin-bottom: 0px;' src='stim/fixation.png'><img src='stim/b/water_pines_snowy_moutain.jpg' width='750px' height='500px'>","49","html-keyboard-response","114","156757","0.0-12.0-1.22","training","gh","0.8","valid","10","g","avoid:lose","48","waterfall_waterBelow.jpg","water_pines_snowy_moutain.jpg","water_pines_snowy_moutain.jpg","GUID","11","11/12/2020","43","M","right","23","1","0","-5","losepoints.bmp","B","points"
"null","<img style='border: 5px solid #808080;' src='stim/b/waterfall_waterBelow.jpg' width='750px' height='500px'><img style='width:150px; height:150px; padding-right: 50px; padding-left: 50px; margin-bottom: 25px;' src='stim/losepoints.bmp'><img style='border: 5px solid #ffffff;  padding-left:15px;' src='stim/b/water_pines_snowy_moutain.jpg' width='750px' height='500px'>","null","html-keyboard-response","115","157760","0.0-12.0-2.22","","","","","","","","","","","","","","","","","","","","","","","",""
"null","<img style='width:200px; height:200px; margin-left: 95px; margin-right: 95px;' src='stim/fixation.png'>","null","html-keyboard-response","116","158761","0.0-12.0-0.23","","","","","","","","","","","","","","","","","","","","","","","",""
"1097.0000000015716","<img src='stim/b/orangey_field.jpg' width='750px' height='500px'><img style='width:200px; height:200px; margin-bottom: 0px;' src='stim/fixation.png'><img src='stim/b/lsingeltree_tallergrass_clouds.jpg' width='750px' height='500px'>","49","html-keyboard-response","117","159861","0.0-12.0-1.23","training","cd","0.8","invalid","10","c","win:stay","48","orangey_field.jpg","lsingeltree_tallergrass_clouds.jpg","lsingeltree_tallergrass_clouds.jpg","GUID","11","11/12/2020","43","M","right","24","1","0","0","winpoints.bmp","B","points"
"null","<img style='border: 5px solid #808080;' src='stim/b/orangey_field.jpg' width='750px' height='500px'><img style='width:150px; height:150px; padding-right: 50px; padding-left: 50px; margin-bottom: 25px;' src='stim/winpoints.bmp'><img style='border: 5px solid #ffffff;  padding-left:15px;' src='stim/b/lsingeltree_tallergrass_clouds.jpg' width='750px' height='500px'>","null","html-keyboard-response","118","160864","0.0-12.0-2.23","","","","","","","","","","","","","","","","","","","","","","","",""
"null","<img style='width:200px; height:200px; margin-left: 95px; margin-right: 95px;' src='stim/fixation.png'>","null","html-keyboard-response","119","161865","0.0-12.0-0.24","","","","","","","","","","","","","","","","","","","","","","","",""
"913.0000000004657","<img src='stim/b/water_fall_images.jpg' width='750px' height='500px'><img style='width:200px; height:200px; margin-bottom: 0px;' src='stim/fixation.png'><img src='stim/b/water_pines_distantMountains.jpg' width='750px' height='500px'>","49","html-keyboard-response","120","162781","0.0-12.0-1.24","training","ef","0.9","valid","10","e","avoid:lose","49","water_fall_images.jpg","water_pines_distantMountains.jpg","water_fall_images.jpg","GUID","11","11/12/2020","43","M","right","25","1","1","0","keep_points.png","B","points"
"null","<img style='border: 5px solid #808080;' src='stim/b/water_fall_images.jpg' width='750px' height='500px'><img style='width:150px; height:150px; padding-right: 50px; padding-left: 50px; margin-bottom: 25px;' src='stim/keep_points.png'><img style='border: 5px solid #ffffff;  padding-left:15px;' src='stim/b/water_pines_distantMountains.jpg' width='750px' height='500px'>","null","html-keyboard-response","121","163783","0.0-12.0-2.24","","","","","","","","","","","","","","","","","","","","","","","",""
"null","<img style='width:200px; height:200px; margin-left: 95px; margin-right: 95px;' src='stim/fixation.png'>","null","html-keyboard-response","122","164784","0.0-12.0-0.25","","","","","","","","","","","","","","","","","","","","","","","",""
"617.9999999985739","<img src='stim/b/3d-landscape-background-10.jpg' width='750px' height='500px'><img style='width:200px; height:200px; margin-bottom: 0px;' src='stim/fixation.png'><img src='stim/b/2822landscape.jpg' width='750px' height='500px'>","49","html-keyboard-response","123","165406","0.0-12.0-1.25","training","ab","0.9","valid","10","a","win:stay","49","3d-landscape-background-10.jpg","2822landscape.jpg","3d-landscape-background-10.jpg","GUID","11","11/12/2020","43","M","right","26","1","1","5","winpoints.bmp","B","points"
"null","<img style='border: 5px solid #808080;' src='stim/b/3d-landscape-background-10.jpg' width='750px' height='500px'><img style='width:150px; height:150px; padding-right: 50px; padding-left: 50px; margin-bottom: 25px;' src='stim/winpoints.bmp'><img style='border: 5px solid #ffffff;  padding-left:15px;' src='stim/b/2822landscape.jpg' width='750px' height='500px'>","null","html-keyboard-response","124","166409","0.0-12.0-2.25","","","","","","","","","","","","","","","","","","","","","","","",""
"null","<img style='width:200px; height:200px; margin-left: 95px; margin-right: 95px;' src='stim/fixation.png'>","null","html-keyboard-response","125","167410","0.0-12.0-0.26","","","","","","","","","","","","","","","","","","","","","","","",""
"639.9999999994179","<img src='stim/b/lsingeltree_tallergrass_clouds.jpg' width='750px' height='500px'><img style='width:200px; height:200px; margin-bottom: 0px;' src='stim/fixation.png'><img src='stim/b/orangey_field.jpg' width='750px' height='500px'>","49","html-keyboard-response","126","168053","0.0-12.0-1.26","training","cd","0.8","valid","10","c","win:stay","49","lsingeltree_tallergrass_clouds.jpg","orangey_field.jpg","lsingeltree_tallergrass_clouds.jpg","GUID","11","11/12/2020","43","M","right","27","1","1","10","winpoints.bmp","B","points"
"null","<img style='border: 5px solid #808080;' src='stim/b/lsingeltree_tallergrass_clouds.jpg' width='750px' height='500px'><img style='width:150px; height:150px; padding-right: 50px; padding-left: 50px; margin-bottom: 25px;' src='stim/winpoints.bmp'><img style='border: 5px solid #ffffff;  padding-left:15px;' src='stim/b/orangey_field.jpg' width='750px' height='500px'>","null","html-keyboard-response","127","169056","0.0-12.0-2.26","","","","","","","","","","","","","","","","","","","","","","","",""
"null","<img style='width:200px; height:200px; margin-left: 95px; margin-right: 95px;' src='stim/fixation.png'>","null","html-keyboard-response","128","170057","0.0-12.0-0.27","","","","","","","","","","","","","","","","","","","","","","","",""
"826.0000000009313","<img src='stim/b/water_pines_snowy_moutain.jpg' width='750px' height='500px'><img style='width:200px; height:200px; margin-bottom: 0px;' src='stim/fixation.png'><img src='stim/b/waterfall_waterBelow.jpg' width='750px' height='500px'>","48","html-keyboard-response","129","170885","0.0-12.0-1.27","training","gh","0.8","valid","10","g","avoid:lose","49","waterfall_waterBelow.jpg","water_pines_snowy_moutain.jpg","water_pines_snowy_moutain.jpg","GUID","11","11/12/2020","43","M","right","28","1","0","5","losepoints.bmp","B","points"
"null","<img style='border: 5px solid #ffffff; padding-right:15px;' src='stim/b/water_pines_snowy_moutain.jpg' width='750px' height='500px'><img style='width:150px; height:150px; padding-right: 50px; padding-left: 50px; margin-bottom: 25px;' src='stim/losepoints.bmp'><img style='border: 5px solid #808080;'src='stim/b/waterfall_waterBelow.jpg' width='750px' height='500px'>","null","html-keyboard-response","130","171888","0.0-12.0-2.27","","","","","","","","","","","","","","","","","","","","","","","",""
"null","<img style='width:200px; height:200px; margin-left: 95px; margin-right: 95px;' src='stim/fixation.png'>","null","html-keyboard-response","131","172889","0.0-12.0-0.28","","","","","","","","","","","","","","","","","","","","","","","",""
"817.9999999993015","<img src='stim/b/orangey_field.jpg' width='750px' height='500px'><img style='width:200px; height:200px; margin-bottom: 0px;' src='stim/fixation.png'><img src='stim/b/lsingeltree_tallergrass_clouds.jpg' width='750px' height='500px'>","48","html-keyboard-response","132","173709","0.0-12.0-1.28","training","cd","0.8","valid","10","c","win:stay","48","orangey_field.jpg","lsingeltree_tallergrass_clouds.jpg","lsingeltree_tallergrass_clouds.jpg","GUID","11","11/12/2020","43","M","right","29","1","1","10","winpoints.bmp","B","points"
"null","<img style='border: 5px solid #ffffff; padding-right:15px;' src='stim/b/orangey_field.jpg' width='750px' height='500px'><img style='width:150px; height:150px; padding-right: 50px; padding-left: 50px; margin-bottom: 25px;' src='stim/winpoints.bmp'><img style='border: 5px solid #808080;'src='stim/b/lsingeltree_tallergrass_clouds.jpg' width='750px' height='500px'>","null","html-keyboard-response","133","174712","0.0-12.0-2.28","","","","","","","","","","","","","","","","","","","","","","","",""
"null","<img style='width:200px; height:200px; margin-left: 95px; margin-right: 95px;' src='stim/fixation.png'>","null","html-keyboard-response","134","175712","0.0-12.0-0.29","","","","","","","","","","","","","","","","","","","","","","","",""
"2284.9999999998545","<img src='stim/b/water_pines_snowy_moutain.jpg' width='750px' height='500px'><img style='width:200px; height:200px; margin-bottom: 0px;' src='stim/fixation.png'><img src='stim/b/waterfall_waterBelow.jpg' width='750px' height='500px'>","48","html-keyboard-response","135","178000","0.0-12.0-1.29","training","gh","0.8","valid","10","g","avoid:lose","49","waterfall_waterBelow.jpg","water_pines_snowy_moutain.jpg","water_pines_snowy_moutain.jpg","GUID","11","11/12/2020","43","M","right","30","1","0","5","losepoints.bmp","B","points"
"null","<img style='border: 5px solid #ffffff; padding-right:15px;' src='stim/b/water_pines_snowy_moutain.jpg' width='750px' height='500px'><img style='width:150px; height:150px; padding-right: 50px; padding-left: 50px; margin-bottom: 25px;' src='stim/losepoints.bmp'><img style='border: 5px solid #808080;'src='stim/b/waterfall_waterBelow.jpg' width='750px' height='500px'>","null","html-keyboard-response","136","179002","0.0-12.0-2.29","","","","","","","","","","","","","","","","","","","","","","","",""
"null","<img style='width:200px; height:200px; margin-left: 95px; margin-right: 95px;' src='stim/fixation.png'>","null","html-keyboard-response","137","180004","0.0-12.0-0.30","","","","","","","","","","","","","","","","","","","","","","","",""
"807.0000000006985","<img src='stim/b/2822landscape.jpg' width='750px' height='500px'><img style='width:200px; height:200px; margin-bottom: 0px;' src='stim/fixation.png'><img src='stim/b/3d-landscape-background-10.jpg' width='750px' height='500px'>","48","html-keyboard-response","138","180813","0.0-12.0-1.30","training","ab","0.9","valid","10","a","win:stay","48","2822landscape.jpg","3d-landscape-background-10.jpg","3d-landscape-background-10.jpg","GUID","11","11/12/2020","43","M","right","31","1","1","10","winpoints.bmp","B","points"
"null","<img style='border: 5px solid #ffffff; padding-right:15px;' src='stim/b/2822landscape.jpg' width='750px' height='500px'><img style='width:150px; height:150px; padding-right: 50px; padding-left: 50px; margin-bottom: 25px;' src='stim/winpoints.bmp'><img style='border: 5px solid #808080;'src='stim/b/3d-landscape-background-10.jpg' width='750px' height='500px'>","null","html-keyboard-response","139","181816","0.0-12.0-2.30","","","","","","","","","","","","","","","","","","","","","","","",""
"null","<img style='width:200px; height:200px; margin-left: 95px; margin-right: 95px;' src='stim/fixation.png'>","null","html-keyboard-response","140","182817","0.0-12.0-0.31","","","","","","","","","","","","","","","","","","","","","","","",""
"872.9999999995925","<img src='stim/b/water_pines_distantMountains.jpg' width='750px' height='500px'><img style='width:200px; height:200px; margin-bottom: 0px;' src='stim/fixation.png'><img src='stim/b/water_fall_images.jpg' width='750px' height='500px'>","48","html-keyboard-response","141","183693","0.0-12.0-1.31","training","ef","0.9","valid","10","e","avoid:lose","48","water_pines_distantMountains.jpg","water_fall_images.jpg","water_fall_images.jpg","GUID","11","11/12/2020","43","M","right","32","1","1","10","keep_points.png","B","points"
"null","<img style='border: 5px solid #ffffff; padding-right:15px;' src='stim/b/water_pines_distantMountains.jpg' width='750px' height='500px'><img style='width:150px; height:150px; padding-right: 50px; padding-left: 50px; margin-bottom: 25px;' src='stim/keep_points.png'><img style='border: 5px solid #808080;'src='stim/b/water_fall_images.jpg' width='750px' height='500px'>","null","html-keyboard-response","142","184696","0.0-12.0-2.31","","","","","","","","","","","","","","","","","","","","","","","",""
"null","<img style='width:200px; height:200px; margin-left: 95px; margin-right: 95px;' src='stim/fixation.png'>","null","html-keyboard-response","143","185696","0.0-12.0-0.32","","","","","","","","","","","","","","","","","","","","","","","",""
"1138.9999999992142","<img src='stim/b/waterfall_waterBelow.jpg' width='750px' height='500px'><img style='width:200px; height:200px; margin-bottom: 0px;' src='stim/fixation.png'><img src='stim/b/water_pines_snowy_moutain.jpg' width='750px' height='500px'>","49","html-keyboard-response","144","186837","0.0-12.0-1.32","training","gh","0.8","valid","10","g","avoid:lose","48","waterfall_waterBelow.jpg","water_pines_snowy_moutain.jpg","water_pines_snowy_moutain.jpg","GUID","11","11/12/2020","43","M","right","33","1","0","5","losepoints.bmp","B","points"
"null","<img style='border: 5px solid #808080;' src='stim/b/waterfall_waterBelow.jpg' width='750px' height='500px'><img style='width:150px; height:150px; padding-right: 50px; padding-left: 50px; margin-bottom: 25px;' src='stim/losepoints.bmp'><img style='border: 5px solid #ffffff;  padding-left:15px;' src='stim/b/water_pines_snowy_moutain.jpg' width='750px' height='500px'>","null","html-keyboard-response","145","187840","0.0-12.0-2.32","","","","","","","","","","","","","","","","","","","","","","","",""
"null","<img style='width:200px; height:200px; margin-left: 95px; margin-right: 95px;' src='stim/fixation.png'>","null","html-keyboard-response","146","188841","0.0-12.0-0.33","","","","","","","","","","","","","","","","","","","","","","","",""
"633.9999999981956","<img src='stim/b/3d-landscape-background-10.jpg' width='750px' height='500px'><img style='width:200px; height:200px; margin-bottom: 0px;' src='stim/fixation.png'><img src='stim/b/2822landscape.jpg' width='750px' height='500px'>","49","html-keyboard-response","147","189477","0.0-12.0-1.33","training","ab","0.9","valid","10","a","win:stay","49","3d-landscape-background-10.jpg","2822landscape.jpg","3d-landscape-background-10.jpg","GUID","11","11/12/2020","43","M","right","34","1","1","10","winpoints.bmp","B","points"
"null","<img style='border: 5px solid #808080;' src='stim/b/3d-landscape-background-10.jpg' width='750px' height='500px'><img style='width:150px; height:150px; padding-right: 50px; padding-left: 50px; margin-bottom: 25px;' src='stim/winpoints.bmp'><img style='border: 5px solid #ffffff;  padding-left:15px;' src='stim/b/2822landscape.jpg' width='750px' height='500px'>","null","html-keyboard-response","148","190481","0.0-12.0-2.33","","","","","","","","","","","","","","","","","","","","","","","",""
"null","<img style='width:200px; height:200px; margin-left: 95px; margin-right: 95px;' src='stim/fixation.png'>","null","html-keyboard-response","149","191482","0.0-12.0-0.34","","","","","","","","","","","","","","","","","","","","","","","",""
"2208.999999998923","<img src='stim/b/water_fall_images.jpg' width='750px' height='500px'><img style='width:200px; height:200px; margin-bottom: 0px;' src='stim/fixation.png'><img src='stim/b/water_pines_distantMountains.jpg' width='750px' height='500px'>","49","html-keyboard-response","150","193695","0.0-12.0-1.34","training","ef","0.9","valid","10","e","avoid:lose","49","water_fall_images.jpg","water_pines_distantMountains.jpg","water_fall_images.jpg","GUID","11","11/12/2020","43","M","right","35","1","1","10","keep_points.png","B","points"
"null","<img style='border: 5px solid #808080;' src='stim/b/water_fall_images.jpg' width='750px' height='500px'><img style='width:150px; height:150px; padding-right: 50px; padding-left: 50px; margin-bottom: 25px;' src='stim/keep_points.png'><img style='border: 5px solid #ffffff;  padding-left:15px;' src='stim/b/water_pines_distantMountains.jpg' width='750px' height='500px'>","null","html-keyboard-response","151","194697","0.0-12.0-2.34","","","","","","","","","","","","","","","","","","","","","","","",""
"null","<img style='width:200px; height:200px; margin-left: 95px; margin-right: 95px;' src='stim/fixation.png'>","null","html-keyboard-response","152","195698","0.0-12.0-0.35","","","","","","","","","","","","","","","","","","","","","","","",""
"960.9999999993306","<img src='stim/b/lsingeltree_tallergrass_clouds.jpg' width='750px' height='500px'><img style='width:200px; height:200px; margin-bottom: 0px;' src='stim/fixation.png'><img src='stim/b/orangey_field.jpg' width='750px' height='500px'>","49","html-keyboard-response","153","196661","0.0-12.0-1.35","training","cd","0.8","valid","10","c","win:stay","49","lsingeltree_tallergrass_clouds.jpg","orangey_field.jpg","lsingeltree_tallergrass_clouds.jpg","GUID","11","11/12/2020","43","M","right","36","1","1","15","winpoints.bmp","B","points"
"null","<img style='border: 5px solid #808080;' src='stim/b/lsingeltree_tallergrass_clouds.jpg' width='750px' height='500px'><img style='width:150px; height:150px; padding-right: 50px; padding-left: 50px; margin-bottom: 25px;' src='stim/winpoints.bmp'><img style='border: 5px solid #ffffff;  padding-left:15px;' src='stim/b/orangey_field.jpg' width='750px' height='500px'>","null","html-keyboard-response","154","197664","0.0-12.0-2.35","","","","","","","","","","","","","","","","","","","","","","","",""
"null","<img style='width:200px; height:200px; margin-left: 95px; margin-right: 95px;' src='stim/fixation.png'>","null","html-keyboard-response","155","198666","0.0-12.0-0.36","","","","","","","","","","","","","","","","","","","","","","","",""
"841.0000000003492","<img src='stim/b/2822landscape.jpg' width='750px' height='500px'><img style='width:200px; height:200px; margin-bottom: 0px;' src='stim/fixation.png'><img src='stim/b/3d-landscape-background-10.jpg' width='750px' height='500px'>","48","html-keyboard-response","156","199509","0.0-12.0-1.36","training","ab","0.9","valid","10","a","win:stay","48","2822landscape.jpg","3d-landscape-background-10.jpg","3d-landscape-background-10.jpg","GUID","11","11/12/2020","43","M","right","37","1","1","20","winpoints.bmp","B","points"
"null","<img style='border: 5px solid #ffffff; padding-right:15px;' src='stim/b/2822landscape.jpg' width='750px' height='500px'><img style='width:150px; height:150px; padding-right: 50px; padding-left: 50px; margin-bottom: 25px;' src='stim/winpoints.bmp'><img style='border: 5px solid #808080;'src='stim/b/3d-landscape-background-10.jpg' width='750px' height='500px'>","null","html-keyboard-response","157","200512","0.0-12.0-2.36","","","","","","","","","","","","","","","","","","","","","","","",""
"null","<img style='width:200px; height:200px; margin-left: 95px; margin-right: 95px;' src='stim/fixation.png'>","null","html-keyboard-response","158","201513","0.0-12.0-0.37","","","","","","","","","","","","","","","","","","","","","","","",""
"729.9999999995634","<img src='stim/b/lsingeltree_tallergrass_clouds.jpg' width='750px' height='500px'><img style='width:200px; height:200px; margin-bottom: 0px;' src='stim/fixation.png'><img src='stim/b/orangey_field.jpg' width='750px' height='500px'>","49","html-keyboard-response","159","202245","0.0-12.0-1.37","training","cd","0.8","valid","10","c","win:stay","49","lsingeltree_tallergrass_clouds.jpg","orangey_field.jpg","lsingeltree_tallergrass_clouds.jpg","GUID","11","11/12/2020","43","M","right","38","1","1","25","winpoints.bmp","B","points"
"null","<img style='border: 5px solid #808080;' src='stim/b/lsingeltree_tallergrass_clouds.jpg' width='750px' height='500px'><img style='width:150px; height:150px; padding-right: 50px; padding-left: 50px; margin-bottom: 25px;' src='stim/winpoints.bmp'><img style='border: 5px solid #ffffff;  padding-left:15px;' src='stim/b/orangey_field.jpg' width='750px' height='500px'>","null","html-keyboard-response","160","203247","0.0-12.0-2.37","","","","","","","","","","","","","","","","","","","","","","","",""
"null","<img style='width:200px; height:200px; margin-left: 95px; margin-right: 95px;' src='stim/fixation.png'>","null","html-keyboard-response","161","204249","0.0-12.0-0.38","","","","","","","","","","","","","","","","","","","","","","","",""
"811.0000000015134","<img src='stim/b/waterfall_waterBelow.jpg' width='750px' height='500px'><img style='width:200px; height:200px; margin-bottom: 0px;' src='stim/fixation.png'><img src='stim/b/water_pines_snowy_moutain.jpg' width='750px' height='500px'>","49","html-keyboard-response","162","205061","0.0-12.0-1.38","training","gh","0.8","valid","10","g","avoid:lose","48","waterfall_waterBelow.jpg","water_pines_snowy_moutain.jpg","water_pines_snowy_moutain.jpg","GUID","11","11/12/2020","43","M","right","39","1","0","20","losepoints.bmp","B","points"
"null","<img style='border: 5px solid #808080;' src='stim/b/waterfall_waterBelow.jpg' width='750px' height='500px'><img style='width:150px; height:150px; padding-right: 50px; padding-left: 50px; margin-bottom: 25px;' src='stim/losepoints.bmp'><img style='border: 5px solid #ffffff;  padding-left:15px;' src='stim/b/water_pines_snowy_moutain.jpg' width='750px' height='500px'>","null","html-keyboard-response","163","206065","0.0-12.0-2.38","","","","","","","","","","","","","","","","","","","","","","","",""
"null","<img style='width:200px; height:200px; margin-left: 95px; margin-right: 95px;' src='stim/fixation.png'>","null","html-keyboard-response","164","207067","0.0-12.0-0.39","","","","","","","","","","","","","","","","","","","","","","","",""
"543.0000000014843","<img src='stim/b/water_fall_images.jpg' width='750px' height='500px'><img style='width:200px; height:200px; margin-bottom: 0px;' src='stim/fixation.png'><img src='stim/b/water_pines_distantMountains.jpg' width='750px' height='500px'>","49","html-keyboard-response","165","207612","0.0-12.0-1.39","training","ef","0.9","valid","10","e","avoid:lose","49","water_fall_images.jpg","water_pines_distantMountains.jpg","water_fall_images.jpg","GUID","11","11/12/2020","43","M","right","40","1","1","20","keep_points.png","B","points"
"null","<img style='border: 5px solid #808080;' src='stim/b/water_fall_images.jpg' width='750px' height='500px'><img style='width:150px; height:150px; padding-right: 50px; padding-left: 50px; margin-bottom: 25px;' src='stim/keep_points.png'><img style='border: 5px solid #ffffff;  padding-left:15px;' src='stim/b/water_pines_distantMountains.jpg' width='750px' height='500px'>","null","html-keyboard-response","166","208616","0.0-12.0-2.39","","","","","","","","","","","","","","","","","","","","","","","",""
"2016.9999999998254","<p>Starting a new block of trials.</p> <p>Press the spacebar to begin.</p>","32","html-keyboard-response","167","211133","0.0-13.0","","","","","","","","","","","","","","","","","","","","","","","",""
"null","<img style='width:200px; height:200px; margin-left: 95px; margin-right: 95px;' src='stim/fixation.png'>","null","html-keyboard-response","168","211634","0.0-14.0-0.0","","","","","","","","","","","","","","","","","","","","","","","",""
"659.0000000032887","<img src='stim/b/lsingeltree_tallergrass_clouds.jpg' width='750px' height='500px'><img style='width:200px; height:200px; margin-bottom: 0px;' src='stim/fixation.png'><img src='stim/b/orangey_field.jpg' width='750px' height='500px'>","49","html-keyboard-response","169","212295","0.0-14.0-1.0","training","cd","0.8","invalid","10","c","win:stay","49","lsingeltree_tallergrass_clouds.jpg","orangey_field.jpg","lsingeltree_tallergrass_clouds.jpg","GUID","11","11/12/2020","43","M","right","1","2","1","20","not_winner.png","B","points"
"null","<img style='border: 5px solid #808080;' src='stim/b/lsingeltree_tallergrass_clouds.jpg' width='750px' height='500px'><img style='width:150px; height:150px; padding-right: 50px; padding-left: 50px; margin-bottom: 25px;' src='stim/not_winner.png'><img style='border: 5px solid #ffffff;  padding-left:15px;' src='stim/b/orangey_field.jpg' width='750px' height='500px'>","null","html-keyboard-response","170","213297","0.0-14.0-2.0","","","","","","","","","","","","","","","","","","","","","","","",""
"null","<img style='width:200px; height:200px; margin-left: 95px; margin-right: 95px;' src='stim/fixation.png'>","null","html-keyboard-response","171","214297","0.0-14.0-0.1","","","","","","","","","","","","","","","","","","","","","","","",""
"1148.0000000010477","<img src='stim/b/waterfall_waterBelow.jpg' width='750px' height='500px'><img style='width:200px; height:200px; margin-bottom: 0px;' src='stim/fixation.png'><img src='stim/b/water_pines_snowy_moutain.jpg' width='750px' height='500px'>","48","html-keyboard-response","172","215448","0.0-14.0-1.1","training","gh","0.8","valid","10","g","avoid:lose","48","waterfall_waterBelow.jpg","water_pines_snowy_moutain.jpg","water_pines_snowy_moutain.jpg","GUID","11","11/12/2020","43","M","right","2","2","1","20","keep_points.png","B","points"
"null","<img style='border: 5px solid #ffffff; padding-right:15px;' src='stim/b/waterfall_waterBelow.jpg' width='750px' height='500px'><img style='width:150px; height:150px; padding-right: 50px; padding-left: 50px; margin-bottom: 25px;' src='stim/keep_points.png'><img style='border: 5px solid #808080;'src='stim/b/water_pines_snowy_moutain.jpg' width='750px' height='500px'>","null","html-keyboard-response","173","216449","0.0-14.0-2.1","","","","","","","","","","","","","","","","","","","","","","","",""
"null","<img style='width:200px; height:200px; margin-left: 95px; margin-right: 95px;' src='stim/fixation.png'>","null","html-keyboard-response","174","217451","0.0-14.0-0.2","","","","","","","","","","","","","","","","","","","","","","","",""
"838.9999999999418","<img src='stim/b/water_pines_distantMountains.jpg' width='750px' height='500px'><img style='width:200px; height:200px; margin-bottom: 0px;' src='stim/fixation.png'><img src='stim/b/water_fall_images.jpg' width='750px' height='500px'>","48","html-keyboard-response","175","218293","0.0-14.0-1.2","training","ef","0.9","invalid","10","e","avoid:lose","48","water_pines_distantMountains.jpg","water_fall_images.jpg","water_fall_images.jpg","GUID","11","11/12/2020","43","M","right","3","2","1","15","losepoints.bmp","B","points"
"null","<img style='border: 5px solid #ffffff; padding-right:15px;' src='stim/b/water_pines_distantMountains.jpg' width='750px' height='500px'><img style='width:150px; height:150px; padding-right: 50px; padding-left: 50px; margin-bottom: 25px;' src='stim/losepoints.bmp'><img style='border: 5px solid #808080;'src='stim/b/water_fall_images.jpg' width='750px' height='500px'>","null","html-keyboard-response","176","219296","0.0-14.0-2.2","","","","","","","","","","","","","","","","","","","","","","","",""
"null","<img style='width:200px; height:200px; margin-left: 95px; margin-right: 95px;' src='stim/fixation.png'>","null","html-keyboard-response","177","220297","0.0-14.0-0.3","","","","","","","","","","","","","","","","","","","","","","","",""
"777.0000000018626","<img src='stim/b/2822landscape.jpg' width='750px' height='500px'><img style='width:200px; height:200px; margin-bottom: 0px;' src='stim/fixation.png'><img src='stim/b/3d-landscape-background-10.jpg' width='750px' height='500px'>","48","html-keyboard-response","178","221076","0.0-14.0-1.3","training","ab","0.9","valid","10","a","win:stay","48","2822landscape.jpg","3d-landscape-background-10.jpg","3d-landscape-background-10.jpg","GUID","11","11/12/2020","43","M","right","4","2","1","20","winpoints.bmp","B","points"
"null","<img style='border: 5px solid #ffffff; padding-right:15px;' src='stim/b/2822landscape.jpg' width='750px' height='500px'><img style='width:150px; height:150px; padding-right: 50px; padding-left: 50px; margin-bottom: 25px;' src='stim/winpoints.bmp'><img style='border: 5px solid #808080;'src='stim/b/3d-landscape-background-10.jpg' width='750px' height='500px'>","null","html-keyboard-response","179","222079","0.0-14.0-2.3","","","","","","","","","","","","","","","","","","","","","","","",""
"null","<img style='width:200px; height:200px; margin-left: 95px; margin-right: 95px;' src='stim/fixation.png'>","null","html-keyboard-response","180","223080","0.0-14.0-0.4","","","","","","","","","","","","","","","","","","","","","","","",""
"899.0000000012515","<img src='stim/b/2822landscape.jpg' width='750px' height='500px'><img style='width:200px; height:200px; margin-bottom: 0px;' src='stim/fixation.png'><img src='stim/b/3d-landscape-background-10.jpg' width='750px' height='500px'>","48","html-keyboard-response","181","223981","0.0-14.0-1.4","training","ab","0.9","valid","10","a","win:stay","48","2822landscape.jpg","3d-landscape-background-10.jpg","3d-landscape-background-10.jpg","GUID","11","11/12/2020","43","M","right","5","2","1","25","winpoints.bmp","B","points"
"null","<img style='border: 5px solid #ffffff; padding-right:15px;' src='stim/b/2822landscape.jpg' width='750px' height='500px'><img style='width:150px; height:150px; padding-right: 50px; padding-left: 50px; margin-bottom: 25px;' src='stim/winpoints.bmp'><img style='border: 5px solid #808080;'src='stim/b/3d-landscape-background-10.jpg' width='750px' height='500px'>","null","html-keyboard-response","182","224984","0.0-14.0-2.4","","","","","","","","","","","","","","","","","","","","","","","",""
"null","<img style='width:200px; height:200px; margin-left: 95px; margin-right: 95px;' src='stim/fixation.png'>","null","html-keyboard-response","183","225985","0.0-14.0-0.5","","","","","","","","","","","","","","","","","","","","","","","",""
"792.9999999978463","<img src='stim/b/water_fall_images.jpg' width='750px' height='500px'><img style='width:200px; height:200px; margin-bottom: 0px;' src='stim/fixation.png'><img src='stim/b/water_pines_distantMountains.jpg' width='750px' height='500px'>","49","html-keyboard-response","184","226781","0.0-14.0-1.5","training","ef","0.9","valid","10","e","avoid:lose","49","water_fall_images.jpg","water_pines_distantMountains.jpg","water_fall_images.jpg","GUID","11","11/12/2020","43","M","right","6","2","1","25","keep_points.png","B","points"
"null","<img style='border: 5px solid #808080;' src='stim/b/water_fall_images.jpg' width='750px' height='500px'><img style='width:150px; height:150px; padding-right: 50px; padding-left: 50px; margin-bottom: 25px;' src='stim/keep_points.png'><img style='border: 5px solid #ffffff;  padding-left:15px;' src='stim/b/water_pines_distantMountains.jpg' width='750px' height='500px'>","null","html-keyboard-response","185","227784","0.0-14.0-2.5","","","","","","","","","","","","","","","","","","","","","","","",""
"null","<img style='width:200px; height:200px; margin-left: 95px; margin-right: 95px;' src='stim/fixation.png'>","null","html-keyboard-response","186","228786","0.0-14.0-0.6","","","","","","","","","","","","","","","","","","","","","","","",""
"729.9999999995634","<img src='stim/b/orangey_field.jpg' width='750px' height='500px'><img style='width:200px; height:200px; margin-bottom: 0px;' src='stim/fixation.png'><img src='stim/b/lsingeltree_tallergrass_clouds.jpg' width='750px' height='500px'>","48","html-keyboard-response","187","229517","0.0-14.0-1.6","training","cd","0.8","valid","10","c","win:stay","48","orangey_field.jpg","lsingeltree_tallergrass_clouds.jpg","lsingeltree_tallergrass_clouds.jpg","GUID","11","11/12/2020","43","M","right","7","2","1","30","winpoints.bmp","B","points"
"null","<img style='border: 5px solid #ffffff; padding-right:15px;' src='stim/b/orangey_field.jpg' width='750px' height='500px'><img style='width:150px; height:150px; padding-right: 50px; padding-left: 50px; margin-bottom: 25px;' src='stim/winpoints.bmp'><img style='border: 5px solid #808080;'src='stim/b/lsingeltree_tallergrass_clouds.jpg' width='750px' height='500px'>","null","html-keyboard-response","188","230521","0.0-14.0-2.6","","","","","","","","","","","","","","","","","","","","","","","",""
"null","<img style='width:200px; height:200px; margin-left: 95px; margin-right: 95px;' src='stim/fixation.png'>","null","html-keyboard-response","189","231523","0.0-14.0-0.7","","","","","","","","","","","","","","","","","","","","","","","",""
"1110.9999999971478","<img src='stim/b/waterfall_waterBelow.jpg' width='750px' height='500px'><img style='width:200px; height:200px; margin-bottom: 0px;' src='stim/fixation.png'><img src='stim/b/water_pines_snowy_moutain.jpg' width='750px' height='500px'>","48","html-keyboard-response","190","232636","0.0-14.0-1.7","training","gh","0.8","invalid","10","g","avoid:lose","48","waterfall_waterBelow.jpg","water_pines_snowy_moutain.jpg","water_pines_snowy_moutain.jpg","GUID","11","11/12/2020","43","M","right","8","2","1","25","losepoints.bmp","B","points"
"null","<img style='border: 5px solid #ffffff; padding-right:15px;' src='stim/b/waterfall_waterBelow.jpg' width='750px' height='500px'><img style='width:150px; height:150px; padding-right: 50px; padding-left: 50px; margin-bottom: 25px;' src='stim/losepoints.bmp'><img style='border: 5px solid #808080;'src='stim/b/water_pines_snowy_moutain.jpg' width='750px' height='500px'>","null","html-keyboard-response","191","233639","0.0-14.0-2.7","","","","","","","","","","","","","","","","","","","","","","","",""
"null","<img style='width:200px; height:200px; margin-left: 95px; margin-right: 95px;' src='stim/fixation.png'>","null","html-keyboard-response","192","234641","0.0-14.0-0.8","","","","","","","","","","","","","","","","","","","","","","","",""
"833.9999999989232","<img src='stim/b/water_pines_distantMountains.jpg' width='750px' height='500px'><img style='width:200px; height:200px; margin-bottom: 0px;' src='stim/fixation.png'><img src='stim/b/water_fall_images.jpg' width='750px' height='500px'>","48","html-keyboard-response","193","235477","0.0-14.0-1.8","training","ef","0.9","valid","10","e","avoid:lose","48","water_pines_distantMountains.jpg","water_fall_images.jpg","water_fall_images.jpg","GUID","11","11/12/2020","43","M","right","9","2","1","25","keep_points.png","B","points"
"null","<img style='border: 5px solid #ffffff; padding-right:15px;' src='stim/b/water_pines_distantMountains.jpg' width='750px' height='500px'><img style='width:150px; height:150px; padding-right: 50px; padding-left: 50px; margin-bottom: 25px;' src='stim/keep_points.png'><img style='border: 5px solid #808080;'src='stim/b/water_fall_images.jpg' width='750px' height='500px'>","null","html-keyboard-response","194","236480","0.0-14.0-2.8","","","","","","","","","","","","","","","","","","","","","","","",""
"null","<img style='width:200px; height:200px; margin-left: 95px; margin-right: 95px;' src='stim/fixation.png'>","null","html-keyboard-response","195","237480","0.0-14.0-0.9","","","","","","","","","","","","","","","","","","","","","","","",""
"795.0000000018917","<img src='stim/b/orangey_field.jpg' width='750px' height='500px'><img style='width:200px; height:200px; margin-bottom: 0px;' src='stim/fixation.png'><img src='stim/b/lsingeltree_tallergrass_clouds.jpg' width='750px' height='500px'>","48","html-keyboard-response","196","238278","0.0-14.0-1.9","training","cd","0.8","valid","10","c","win:stay","48","orangey_field.jpg","lsingeltree_tallergrass_clouds.jpg","lsingeltree_tallergrass_clouds.jpg","GUID","11","11/12/2020","43","M","right","10","2","1","30","winpoints.bmp","B","points"
"null","<img style='border: 5px solid #ffffff; padding-right:15px;' src='stim/b/orangey_field.jpg' width='750px' height='500px'><img style='width:150px; height:150px; padding-right: 50px; padding-left: 50px; margin-bottom: 25px;' src='stim/winpoints.bmp'><img style='border: 5px solid #808080;'src='stim/b/lsingeltree_tallergrass_clouds.jpg' width='750px' height='500px'>","null","html-keyboard-response","197","239281","0.0-14.0-2.9","","","","","","","","","","","","","","","","","","","","","","","",""
"null","<img style='width:200px; height:200px; margin-left: 95px; margin-right: 95px;' src='stim/fixation.png'>","null","html-keyboard-response","198","240282","0.0-14.0-0.10","","","","","","","","","","","","","","","","","","","","","","","",""
"672.999999998865","<img src='stim/b/3d-landscape-background-10.jpg' width='750px' height='500px'><img style='width:200px; height:200px; margin-bottom: 0px;' src='stim/fixation.png'><img src='stim/b/2822landscape.jpg' width='750px' height='500px'>","49","html-keyboard-response","199","240957","0.0-14.0-1.10","training","ab","0.9","valid","10","a","win:stay","49","3d-landscape-background-10.jpg","2822landscape.jpg","3d-landscape-background-10.jpg","GUID","11","11/12/2020","43","M","right","11","2","1","35","winpoints.bmp","B","points"
"null","<img style='border: 5px solid #808080;' src='stim/b/3d-landscape-background-10.jpg' width='750px' height='500px'><img style='width:150px; height:150px; padding-right: 50px; padding-left: 50px; margin-bottom: 25px;' src='stim/winpoints.bmp'><img style='border: 5px solid #ffffff;  padding-left:15px;' src='stim/b/2822landscape.jpg' width='750px' height='500px'>","null","html-keyboard-response","200","241962","0.0-14.0-2.10","","","","","","","","","","","","","","","","","","","","","","","",""
"null","<img style='width:200px; height:200px; margin-left: 95px; margin-right: 95px;' src='stim/fixation.png'>","null","html-keyboard-response","201","242962","0.0-14.0-0.11","","","","","","","","","","","","","","","","","","","","","","","",""
"969.0000000009313","<img src='stim/b/water_pines_snowy_moutain.jpg' width='750px' height='500px'><img style='width:200px; height:200px; margin-bottom: 0px;' src='stim/fixation.png'><img src='stim/b/waterfall_waterBelow.jpg' width='750px' height='500px'>","49","html-keyboard-response","202","243933","0.0-14.0-1.11","training","gh","0.8","valid","10","g","avoid:lose","49","waterfall_waterBelow.jpg","water_pines_snowy_moutain.jpg","water_pines_snowy_moutain.jpg","GUID","11","11/12/2020","43","M","right","12","2","1","35","keep_points.png","B","points"
"null","<img style='border: 5px solid #808080;' src='stim/b/water_pines_snowy_moutain.jpg' width='750px' height='500px'><img style='width:150px; height:150px; padding-right: 50px; padding-left: 50px; margin-bottom: 25px;' src='stim/keep_points.png'><img style='border: 5px solid #ffffff;  padding-left:15px;' src='stim/b/waterfall_waterBelow.jpg' width='750px' height='500px'>","null","html-keyboard-response","203","244935","0.0-14.0-2.11","","","","","","","","","","","","","","","","","","","","","","","",""
"null","<img style='width:200px; height:200px; margin-left: 95px; margin-right: 95px;' src='stim/fixation.png'>","null","html-keyboard-response","204","245936","0.0-14.0-0.12","","","","","","","","","","","","","","","","","","","","","","","",""
"826.9999999974971","<img src='stim/b/water_fall_images.jpg' width='750px' height='500px'><img style='width:200px; height:200px; margin-bottom: 0px;' src='stim/fixation.png'><img src='stim/b/water_pines_distantMountains.jpg' width='750px' height='500px'>","49","html-keyboard-response","205","246765","0.0-14.0-1.12","training","ef","0.9","valid","10","e","avoid:lose","49","water_fall_images.jpg","water_pines_distantMountains.jpg","water_fall_images.jpg","GUID","11","11/12/2020","43","M","right","13","2","1","35","keep_points.png","B","points"
"null","<img style='border: 5px solid #808080;' src='stim/b/water_fall_images.jpg' width='750px' height='500px'><img style='width:150px; height:150px; padding-right: 50px; padding-left: 50px; margin-bottom: 25px;' src='stim/keep_points.png'><img style='border: 5px solid #ffffff;  padding-left:15px;' src='stim/b/water_pines_distantMountains.jpg' width='750px' height='500px'>","null","html-keyboard-response","206","247767","0.0-14.0-2.12","","","","","","","","","","","","","","","","","","","","","","","",""
"null","<img style='width:200px; height:200px; margin-left: 95px; margin-right: 95px;' src='stim/fixation.png'>","null","html-keyboard-response","207","248767","0.0-14.0-0.13","","","","","","","","","","","","","","","","","","","","","","","",""
"759.9999999984284","<img src='stim/b/lsingeltree_tallergrass_clouds.jpg' width='750px' height='500px'><img style='width:200px; height:200px; margin-bottom: 0px;' src='stim/fixation.png'><img src='stim/b/orangey_field.jpg' width='750px' height='500px'>","49","html-keyboard-response","208","249530","0.0-14.0-1.13","training","cd","0.8","valid","10","c","win:stay","49","lsingeltree_tallergrass_clouds.jpg","orangey_field.jpg","lsingeltree_tallergrass_clouds.jpg","GUID","11","11/12/2020","43","M","right","14","2","1","40","winpoints.bmp","B","points"
"null","<img style='border: 5px solid #808080;' src='stim/b/lsingeltree_tallergrass_clouds.jpg' width='750px' height='500px'><img style='width:150px; height:150px; padding-right: 50px; padding-left: 50px; margin-bottom: 25px;' src='stim/winpoints.bmp'><img style='border: 5px solid #ffffff;  padding-left:15px;' src='stim/b/orangey_field.jpg' width='750px' height='500px'>","null","html-keyboard-response","209","250533","0.0-14.0-2.13","","","","","","","","","","","","","","","","","","","","","","","",""
"null","<img style='width:200px; height:200px; margin-left: 95px; margin-right: 95px;' src='stim/fixation.png'>","null","html-keyboard-response","210","251534","0.0-14.0-0.14","","","","","","","","","","","","","","","","","","","","","","","",""
"716.0000000003492","<img src='stim/b/3d-landscape-background-10.jpg' width='750px' height='500px'><img style='width:200px; height:200px; margin-bottom: 0px;' src='stim/fixation.png'><img src='stim/b/2822landscape.jpg' width='750px' height='500px'>","49","html-keyboard-response","211","252253","0.0-14.0-1.14","training","ab","0.9","invalid","10","a","win:stay","49","3d-landscape-background-10.jpg","2822landscape.jpg","3d-landscape-background-10.jpg","GUID","11","11/12/2020","43","M","right","15","2","1","40","not_winner.png","B","points"
"null","<img style='border: 5px solid #808080;' src='stim/b/3d-landscape-background-10.jpg' width='750px' height='500px'><img style='width:150px; height:150px; padding-right: 50px; padding-left: 50px; margin-bottom: 25px;' src='stim/not_winner.png'><img style='border: 5px solid #ffffff;  padding-left:15px;' src='stim/b/2822landscape.jpg' width='750px' height='500px'>","null","html-keyboard-response","212","253255","0.0-14.0-2.14","","","","","","","","","","","","","","","","","","","","","","","",""
"null","<img style='width:200px; height:200px; margin-left: 95px; margin-right: 95px;' src='stim/fixation.png'>","null","html-keyboard-response","213","254256","0.0-14.0-0.15","","","","","","","","","","","","","","","","","","","","","","","",""
"1290.9999999974389","<img src='stim/b/water_pines_snowy_moutain.jpg' width='750px' height='500px'><img style='width:200px; height:200px; margin-bottom: 0px;' src='stim/fixation.png'><img src='stim/b/waterfall_waterBelow.jpg' width='750px' height='500px'>","48","html-keyboard-response","214","255549","0.0-14.0-1.15","training","gh","0.8","valid","10","g","avoid:lose","49","waterfall_waterBelow.jpg","water_pines_snowy_moutain.jpg","water_pines_snowy_moutain.jpg","GUID","11","11/12/2020","43","M","right","16","2","0","35","losepoints.bmp","B","points"
"null","<img style='border: 5px solid #ffffff; padding-right:15px;' src='stim/b/water_pines_snowy_moutain.jpg' width='750px' height='500px'><img style='width:150px; height:150px; padding-right: 50px; padding-left: 50px; margin-bottom: 25px;' src='stim/losepoints.bmp'><img style='border: 5px solid #808080;'src='stim/b/waterfall_waterBelow.jpg' width='750px' height='500px'>","null","html-keyboard-response","215","256552","0.0-14.0-2.15","","","","","","","","","","","","","","","","","","","","","","","",""
"null","<img style='width:200px; height:200px; margin-left: 95px; margin-right: 95px;' src='stim/fixation.png'>","null","html-keyboard-response","216","257553","0.0-14.0-0.16","","","","","","","","","","","","","","","","","","","","","","","",""
"632.9999999979627","<img src='stim/b/2822landscape.jpg' width='750px' height='500px'><img style='width:200px; height:200px; margin-bottom: 0px;' src='stim/fixation.png'><img src='stim/b/3d-landscape-background-10.jpg' width='750px' height='500px'>","48","html-keyboard-response","217","258189","0.0-14.0-1.16","training","ab","0.9","valid","10","a","win:stay","48","2822landscape.jpg","3d-landscape-background-10.jpg","3d-landscape-background-10.jpg","GUID","11","11/12/2020","43","M","right","17","2","1","40","winpoints.bmp","B","points"
"null","<img style='border: 5px solid #ffffff; padding-right:15px;' src='stim/b/2822landscape.jpg' width='750px' height='500px'><img style='width:150px; height:150px; padding-right: 50px; padding-left: 50px; margin-bottom: 25px;' src='stim/winpoints.bmp'><img style='border: 5px solid #808080;'src='stim/b/3d-landscape-background-10.jpg' width='750px' height='500px'>","null","html-keyboard-response","218","259194","0.0-14.0-2.16","","","","","","","","","","","","","","","","","","","","","","","",""
"null","<img style='width:200px; height:200px; margin-left: 95px; margin-right: 95px;' src='stim/fixation.png'>","null","html-keyboard-response","219","260195","0.0-14.0-0.17","","","","","","","","","","","","","","","","","","","","","","","",""
"633.0000000016298","<img src='stim/b/water_pines_distantMountains.jpg' width='750px' height='500px'><img style='width:200px; height:200px; margin-bottom: 0px;' src='stim/fixation.png'><img src='stim/b/water_fall_images.jpg' width='750px' height='500px'>","48","html-keyboard-response","220","260829","0.0-14.0-1.17","training","ef","0.9","valid","10","e","avoid:lose","48","water_pines_distantMountains.jpg","water_fall_images.jpg","water_fall_images.jpg","GUID","11","11/12/2020","43","M","right","18","2","1","40","keep_points.png","B","points"
"null","<img style='border: 5px solid #ffffff; padding-right:15px;' src='stim/b/water_pines_distantMountains.jpg' width='750px' height='500px'><img style='width:150px; height:150px; padding-right: 50px; padding-left: 50px; margin-bottom: 25px;' src='stim/keep_points.png'><img style='border: 5px solid #808080;'src='stim/b/water_fall_images.jpg' width='750px' height='500px'>","null","html-keyboard-response","221","261831","0.0-14.0-2.17","","","","","","","","","","","","","","","","","","","","","","","",""
"null","<img style='width:200px; height:200px; margin-left: 95px; margin-right: 95px;' src='stim/fixation.png'>","null","html-keyboard-response","222","262832","0.0-14.0-0.18","","","","","","","","","","","","","","","","","","","","","","","",""
"931.0000000005239","<img src='stim/b/water_pines_snowy_moutain.jpg' width='750px' height='500px'><img style='width:200px; height:200px; margin-bottom: 0px;' src='stim/fixation.png'><img src='stim/b/waterfall_waterBelow.jpg' width='750px' height='500px'>","49","html-keyboard-response","223","263764","0.0-14.0-1.18","training","gh","0.8","invalid","10","g","avoid:lose","49","waterfall_waterBelow.jpg","water_pines_snowy_moutain.jpg","water_pines_snowy_moutain.jpg","GUID","11","11/12/2020","43","M","right","19","2","1","35","losepoints.bmp","B","points"
"null","<img style='border: 5px solid #808080;' src='stim/b/water_pines_snowy_moutain.jpg' width='750px' height='500px'><img style='width:150px; height:150px; padding-right: 50px; padding-left: 50px; margin-bottom: 25px;' src='stim/losepoints.bmp'><img style='border: 5px solid #ffffff;  padding-left:15px;' src='stim/b/waterfall_waterBelow.jpg' width='750px' height='500px'>","null","html-keyboard-response","224","264768","0.0-14.0-2.18","","","","","","","","","","","","","","","","","","","","","","","",""
"null","<img style='width:200px; height:200px; margin-left: 95px; margin-right: 95px;' src='stim/fixation.png'>","null","html-keyboard-response","225","265769","0.0-14.0-0.19","","","","","","","","","","","","","","","","","","","","","","","",""
"737.0000000009313","<img src='stim/b/orangey_field.jpg' width='750px' height='500px'><img style='width:200px; height:200px; margin-bottom: 0px;' src='stim/fixation.png'><img src='stim/b/lsingeltree_tallergrass_clouds.jpg' width='750px' height='500px'>","48","html-keyboard-response","226","266508","0.0-14.0-1.19","training","cd","0.8","valid","10","c","win:stay","48","orangey_field.jpg","lsingeltree_tallergrass_clouds.jpg","lsingeltree_tallergrass_clouds.jpg","GUID","11","11/12/2020","43","M","right","20","2","1","40","winpoints.bmp","B","points"
"null","<img style='border: 5px solid #ffffff; padding-right:15px;' src='stim/b/orangey_field.jpg' width='750px' height='500px'><img style='width:150px; height:150px; padding-right: 50px; padding-left: 50px; margin-bottom: 25px;' src='stim/winpoints.bmp'><img style='border: 5px solid #808080;'src='stim/b/lsingeltree_tallergrass_clouds.jpg' width='750px' height='500px'>","null","html-keyboard-response","227","267510","0.0-14.0-2.19","","","","","","","","","","","","","","","","","","","","","","","",""
"null","<img style='width:200px; height:200px; margin-left: 95px; margin-right: 95px;' src='stim/fixation.png'>","null","html-keyboard-response","228","268510","0.0-14.0-0.20","","","","","","","","","","","","","","","","","","","","","","","",""
"587.9999999997672","<img src='stim/b/orangey_field.jpg' width='750px' height='500px'><img style='width:200px; height:200px; margin-bottom: 0px;' src='stim/fixation.png'><img src='stim/b/lsingeltree_tallergrass_clouds.jpg' width='750px' height='500px'>","48","html-keyboard-response","229","269100","0.0-14.0-1.20","training","cd","0.8","invalid","10","c","win:stay","48","orangey_field.jpg","lsingeltree_tallergrass_clouds.jpg","lsingeltree_tallergrass_clouds.jpg","GUID","11","11/12/2020","43","M","right","21","2","1","40","not_winner.png","B","points"
