"rt","stimulus","key_press","trial_type","trial_index","time_elapsed","internal_node_id","test_part","pair","pair_validity","trial_validity","pair_trials_per_block","pair_best_choice","reward_type","correct_response","stim_left","stim_right","stim_best_choice","subjectkey","src_subject_id","site","interview_date","interview_age","sex","handedness","task_version","task_condition","trial","block","reward_tally","accuracy","stim_feedback","stim_set","reward_set"
"1108.2699997350574","<h3 style=""color:#0ed145;"">Welcome to the experiment!</h3><p>Press the spacebar to continue.</p>","32","html-keyboard-response","0","1111","0.0-0.0","","","","","","","","","","","","","","","","","","","","","","","","","","",""
"184.07500023022294","<p>In this task you will see two pictures side-by-side on the computer screen.</p><p>In each pair of pictures you see on the screen, one picture will be better than the other.</p><p>You need to figure out which picture in each pair is the better one.</p><p>Press the spacebar to continue.</p>","32","html-keyboard-response","1","1297","0.0-1.0","","","","","","","","","","","","","","","","","","","","","","","","","","",""
"146.86999982222915","<p>The better picture in each pair will be more likely to either:</p><p>A) win you some points,</p><p>or</p><p>B) allow you to keep the points you've already earned.</p><p>Press the spacebar to continue.</p>","32","html-keyboard-response","2","1445","0.0-2.0","","","","","","","","","","","","","","","","","","","","","","","","","","",""
"146.4949999935925","<p>On those trials where you can A) win points, you will want to select the picture most likely to earn points:</p><img style=""height:100px; width:100px"" src=""stim/winpoints.bmp""</img><p>Because if you keep seeing this feedback:</p><img style=""height:125px; width:125px"" src=""stim/not_winner.png""></img><p>you probably aren't selecting the best picture...</p><p>Press the spacebar to continue.</p>","32","html-keyboard-response","3","1593","0.0-3.0","","","","","","","","","","","","","","","","","","","","","","","","","","",""
"151.1099999770522","<p>On those trials where you can B) lose points, you will want to select the picture most likely to give this feedback:</p><img style=""height:125px; width:125px"" src=""stim/keep_points.png""></img><p>Because if you keep seeing this:</p><img style=""height:100px; width:100px"" src=""stim/losepoints.bmp""></img><p>you probably aren't selecting the best picture...</p><p>Press the spacebar to continue.</p>","32","html-keyboard-response","4","1746","0.0-4.0","","","","","","","","","","","","","","","","","","","","","","","","","","",""
"141.2100000306964","<p>Press the 1 key on your keyboard to select the picture on the LEFT.</p><p>Press the 0 key on your keyboard to select the picture on the RIGHT.</p><p>Press the spacebar to continue.</p>","32","html-keyboard-response","5","1889","0.0-5.0","","","","","","","","","","","","","","","","","","","","","","","","","","",""
"1079.810000024736","<p>First, you will do some practice trials.</p> <p>Press either response button when you are ready to begin.</p>","48","html-keyboard-response","6","2969","0.0-6.0","","","","","","","","","","","","","","","","","","","","","","","","","","",""
"null","<img style='width:200px; height:200px; margin-left: 95px; margin-right: 95px;' src='stim/fixation.png'>","null","html-keyboard-response","7","3471","0.0-7.0-0.0","","","","","","","","","","","","","","","","","","","","","","","","","","",""
"614.2400000244379","<img src='stim/b/African_landscape.jpg' width='750px' height='500px'><img style='width:200px; height:200px; margin-bottom: 0px;' src='stim/fixation.png'><img src='stim/b/closeWater_pines_mountains.jpg' width='750px' height='500px'>","48","html-keyboard-response","8","4089","0.0-7.0-1.0","practice","ab","1","valid","6","a","win:stay","49","African_landscape.jpg","closeWater_pines_mountains.jpg","African_landscape.jpg","GUID","2123","2","11/12/2020","0","M","left","points","B","-1","1","0","0","not_winner.png","B","points"
"null","<img style='border: 5px solid #ffffff; padding-right:15px;' src='stim/b/African_landscape.jpg' width='750px' height='500px'><img style='width:150px; height:150px; padding-right: 50px; padding-left: 50px; margin-bottom: 25px;' src='stim/not_winner.png'><img style='border: 5px solid #808080;'src='stim/b/closeWater_pines_mountains.jpg' width='750px' height='500px'>","null","html-keyboard-response","9","5095","0.0-7.0-2.0","","","","","","","","","","","","","","","","","","","","","","","","","","",""
"null","<img style='width:200px; height:200px; margin-left: 95px; margin-right: 95px;' src='stim/fixation.png'>","null","html-keyboard-response","10","6099","0.0-7.0-0.1","","","","","","","","","","","","","","","","","","","","","","","","","","",""
"264.64000018313527","<img src='stim/b/wheat_with_farmhouse.jpg' width='750px' height='500px'><img style='width:200px; height:200px; margin-bottom: 0px;' src='stim/fixation.png'><img src='stim/b/Trees_with_flowers.jpg' width='750px' height='500px'>","48","html-keyboard-response","11","6366","0.0-7.0-1.1","practice","ef","1","valid","6","e","avoid:lose","48","wheat_with_farmhouse.jpg","Trees_with_flowers.jpg","Trees_with_flowers.jpg","GUID","2123","2","11/12/2020","0","M","left","points","B","-2","1","0","1","keep_points.png","B","points"
"null","<img style='border: 5px solid #ffffff; padding-right:15px;' src='stim/b/wheat_with_farmhouse.jpg' width='750px' height='500px'><img style='width:150px; height:150px; padding-right: 50px; padding-left: 50px; margin-bottom: 25px;' src='stim/keep_points.png'><img style='border: 5px solid #808080;'src='stim/b/Trees_with_flowers.jpg' width='750px' height='500px'>","null","html-keyboard-response","12","7373","0.0-7.0-2.1","","","","","","","","","","","","","","","","","","","","","","","","","","",""
"null","<img style='width:200px; height:200px; margin-left: 95px; margin-right: 95px;' src='stim/fixation.png'>","null","html-keyboard-response","13","8378","0.0-7.0-0.2","","","","","","","","","","","","","","","","","","","","","","","","","","",""
"108.06499980390072","<img src='stim/b/closeWater_pines_mountains.jpg' width='750px' height='500px'><img style='width:200px; height:200px; margin-bottom: 0px;' src='stim/fixation.png'><img src='stim/b/African_landscape.jpg' width='750px' height='500px'>","48","html-keyboard-response","14","8489","0.0-7.0-1.2","practice","ab","1","valid","6","a","win:stay","48","closeWater_pines_mountains.jpg","African_landscape.jpg","African_landscape.jpg","GUID","2123","2","11/12/2020","0","M","left","points","B","-3","1","5","1","winpoints.bmp","B","points"
"null","<img style='border: 5px solid #ffffff; padding-right:15px;' src='stim/b/closeWater_pines_mountains.jpg' width='750px' height='500px'><img style='width:150px; height:150px; padding-right: 50px; padding-left: 50px; margin-bottom: 25px;' src='stim/winpoints.bmp'><img style='border: 5px solid #808080;'src='stim/b/African_landscape.jpg' width='750px' height='500px'>","null","html-keyboard-response","15","9495","0.0-7.0-2.2","","","","","","","","","","","","","","","","","","","","","","","","","","",""
"null","<img style='width:200px; height:200px; margin-left: 95px; margin-right: 95px;' src='stim/fixation.png'>","null","html-keyboard-response","16","10499","0.0-7.0-0.3","","","","","","","","","","","","","","","","","","","","","","","","","","",""
"242.8999999538064","<img src='stim/b/Trees_with_flowers.jpg' width='750px' height='500px'><img style='width:200px; height:200px; margin-bottom: 0px;' src='stim/fixation.png'><img src='stim/b/wheat_with_farmhouse.jpg' width='750px' height='500px'>","48","html-keyboard-response","17","10745","0.0-7.0-1.3","practice","ef","1","valid","6","e","avoid:lose","49","Trees_with_flowers.jpg","wheat_with_farmhouse.jpg","Trees_with_flowers.jpg","GUID","2123","2","11/12/2020","0","M","left","points","B","-4","1","0","0","losepoints.bmp","B","points"
"null","<img style='border: 5px solid #ffffff; padding-right:15px;' src='stim/b/Trees_with_flowers.jpg' width='750px' height='500px'><img style='width:150px; height:150px; padding-right: 50px; padding-left: 50px; margin-bottom: 25px;' src='stim/losepoints.bmp'><img style='border: 5px solid #808080;'src='stim/b/wheat_with_farmhouse.jpg' width='750px' height='500px'>","null","html-keyboard-response","18","11751","0.0-7.0-2.3","","","","","","","","","","","","","","","","","","","","","","","","","","",""
"null","<img style='width:200px; height:200px; margin-left: 95px; margin-right: 95px;' src='stim/fixation.png'>","null","html-keyboard-response","19","12757","0.0-7.0-0.4","","","","","","","","","","","","","","","","","","","","","","","","","","",""
"57.874999940395355","<img src='stim/b/Trees_with_flowers.jpg' width='750px' height='500px'><img style='width:200px; height:200px; margin-bottom: 0px;' src='stim/fixation.png'><img src='stim/b/wheat_with_farmhouse.jpg' width='750px' height='500px'>","48","html-keyboard-response","20","12818","0.0-7.0-1.4","practice","ef","1","valid","6","e","avoid:lose","49","Trees_with_flowers.jpg","wheat_with_farmhouse.jpg","Trees_with_flowers.jpg","GUID","2123","2","11/12/2020","0","M","left","points","B","-5","1","-5","0","losepoints.bmp","B","points"
"null","<img style='border: 5px solid #ffffff; padding-right:15px;' src='stim/b/Trees_with_flowers.jpg' width='750px' height='500px'><img style='width:150px; height:150px; padding-right: 50px; padding-left: 50px; margin-bottom: 25px;' src='stim/losepoints.bmp'><img style='border: 5px solid #808080;'src='stim/b/wheat_with_farmhouse.jpg' width='750px' height='500px'>","null","html-keyboard-response","21","13825","0.0-7.0-2.4","","","","","","","","","","","","","","","","","","","","","","","","","","",""
"null","<img style='width:200px; height:200px; margin-left: 95px; margin-right: 95px;' src='stim/fixation.png'>","null","html-keyboard-response","22","14831","0.0-7.0-0.5","","","","","","","","","","","","","","","","","","","","","","","","","","",""
"431.45000003278255","<img src='stim/b/African_landscape.jpg' width='750px' height='500px'><img style='width:200px; height:200px; margin-bottom: 0px;' src='stim/fixation.png'><img src='stim/b/closeWater_pines_mountains.jpg' width='750px' height='500px'>","48","html-keyboard-response","23","15266","0.0-7.0-1.5","practice","ab","1","valid","6","a","win:stay","49","African_landscape.jpg","closeWater_pines_mountains.jpg","African_landscape.jpg","GUID","2123","2","11/12/2020","0","M","left","points","B","-6","1","-5","0","not_winner.png","B","points"
"null","<img style='border: 5px solid #ffffff; padding-right:15px;' src='stim/b/African_landscape.jpg' width='750px' height='500px'><img style='width:150px; height:150px; padding-right: 50px; padding-left: 50px; margin-bottom: 25px;' src='stim/not_winner.png'><img style='border: 5px solid #808080;'src='stim/b/closeWater_pines_mountains.jpg' width='750px' height='500px'>","null","html-keyboard-response","24","16270","0.0-7.0-2.5","","","","","","","","","","","","","","","","","","","","","","","","","","",""
"null","<img style='width:200px; height:200px; margin-left: 95px; margin-right: 95px;' src='stim/fixation.png'>","null","html-keyboard-response","25","17276","0.0-7.0-0.6","","","","","","","","","","","","","","","","","","","","","","","","","","",""
"244.58999978378415","<img src='stim/b/closeWater_pines_mountains.jpg' width='750px' height='500px'><img style='width:200px; height:200px; margin-bottom: 0px;' src='stim/fixation.png'><img src='stim/b/African_landscape.jpg' width='750px' height='500px'>","48","html-keyboard-response","26","17523","0.0-7.0-1.6","practice","ab","1","valid","6","a","win:stay","48","closeWater_pines_mountains.jpg","African_landscape.jpg","African_landscape.jpg","GUID","2123","2","11/12/2020","0","M","left","points","B","-7","1","0","1","winpoints.bmp","B","points"
"null","<img style='border: 5px solid #ffffff; padding-right:15px;' src='stim/b/closeWater_pines_mountains.jpg' width='750px' height='500px'><img style='width:150px; height:150px; padding-right: 50px; padding-left: 50px; margin-bottom: 25px;' src='stim/winpoints.bmp'><img style='border: 5px solid #808080;'src='stim/b/African_landscape.jpg' width='750px' height='500px'>","null","html-keyboard-response","27","18530","0.0-7.0-2.6","","","","","","","","","","","","","","","","","","","","","","","","","","",""
"null","<img style='width:200px; height:200px; margin-left: 95px; margin-right: 95px;' src='stim/fixation.png'>","null","html-keyboard-response","28","19536","0.0-7.0-0.7","","","","","","","","","","","","","","","","","","","","","","","","","","",""
"203.23500037193298","<img src='stim/b/wheat_with_farmhouse.jpg' width='750px' height='500px'><img style='width:200px; height:200px; margin-bottom: 0px;' src='stim/fixation.png'><img src='stim/b/Trees_with_flowers.jpg' width='750px' height='500px'>","48","html-keyboard-response","29","19742","0.0-7.0-1.7","practice","ef","1","valid","6","e","avoid:lose","48","wheat_with_farmhouse.jpg","Trees_with_flowers.jpg","Trees_with_flowers.jpg","GUID","2123","2","11/12/2020","0","M","left","points","B","-8","1","0","1","keep_points.png","B","points"
"null","<img style='border: 5px solid #ffffff; padding-right:15px;' src='stim/b/wheat_with_farmhouse.jpg' width='750px' height='500px'><img style='width:150px; height:150px; padding-right: 50px; padding-left: 50px; margin-bottom: 25px;' src='stim/keep_points.png'><img style='border: 5px solid #808080;'src='stim/b/Trees_with_flowers.jpg' width='750px' height='500px'>","null","html-keyboard-response","30","20750","0.0-7.0-2.7","","","","","","","","","","","","","","","","","","","","","","","","","","",""
"null","<img style='width:200px; height:200px; margin-left: 95px; margin-right: 95px;' src='stim/fixation.png'>","null","html-keyboard-response","31","21756","0.0-7.0-0.8","","","","","","","","","","","","","","","","","","","","","","","","","","",""
"288.22499979287386","<img src='stim/b/African_landscape.jpg' width='750px' height='500px'><img style='width:200px; height:200px; margin-bottom: 0px;' src='stim/fixation.png'><img src='stim/b/closeWater_pines_mountains.jpg' width='750px' height='500px'>","48","html-keyboard-response","32","22047","0.0-7.0-1.8","practice","ab","1","valid","6","a","win:stay","49","African_landscape.jpg","closeWater_pines_mountains.jpg","African_landscape.jpg","GUID","2123","2","11/12/2020","0","M","left","points","B","-9","1","0","0","not_winner.png","B","points"
"null","<img style='border: 5px solid #ffffff; padding-right:15px;' src='stim/b/African_landscape.jpg' width='750px' height='500px'><img style='width:150px; height:150px; padding-right: 50px; padding-left: 50px; margin-bottom: 25px;' src='stim/not_winner.png'><img style='border: 5px solid #808080;'src='stim/b/closeWater_pines_mountains.jpg' width='750px' height='500px'>","null","html-keyboard-response","33","23054","0.0-7.0-2.8","","","","","","","","","","","","","","","","","","","","","","","","","","",""
"null","<img style='width:200px; height:200px; margin-left: 95px; margin-right: 95px;' src='stim/fixation.png'>","null","html-keyboard-response","34","24060","0.0-7.0-0.9","","","","","","","","","","","","","","","","","","","","","","","","","","",""
"192.1450002118945","<img src='stim/b/wheat_with_farmhouse.jpg' width='750px' height='500px'><img style='width:200px; height:200px; margin-bottom: 0px;' src='stim/fixation.png'><img src='stim/b/Trees_with_flowers.jpg' width='750px' height='500px'>","48","html-keyboard-response","35","24255","0.0-7.0-1.9","practice","ef","1","valid","6","e","avoid:lose","48","wheat_with_farmhouse.jpg","Trees_with_flowers.jpg","Trees_with_flowers.jpg","GUID","2123","2","11/12/2020","0","M","left","points","B","-10","1","0","1","keep_points.png","B","points"
"null","<img style='border: 5px solid #ffffff; padding-right:15px;' src='stim/b/wheat_with_farmhouse.jpg' width='750px' height='500px'><img style='width:150px; height:150px; padding-right: 50px; padding-left: 50px; margin-bottom: 25px;' src='stim/keep_points.png'><img style='border: 5px solid #808080;'src='stim/b/Trees_with_flowers.jpg' width='750px' height='500px'>","null","html-keyboard-response","36","25262","0.0-7.0-2.9","","","","","","","","","","","","","","","","","","","","","","","","","","",""
"null","<img style='width:200px; height:200px; margin-left: 95px; margin-right: 95px;' src='stim/fixation.png'>","null","html-keyboard-response","37","26267","0.0-7.0-0.10","","","","","","","","","","","","","","","","","","","","","","","","","","",""
"278.3999997191131","<img src='stim/b/closeWater_pines_mountains.jpg' width='750px' height='500px'><img style='width:200px; height:200px; margin-bottom: 0px;' src='stim/fixation.png'><img src='stim/b/African_landscape.jpg' width='750px' height='500px'>","48","html-keyboard-response","38","26548","0.0-7.0-1.10","practice","ab","1","valid","6","a","win:stay","48","closeWater_pines_mountains.jpg","African_landscape.jpg","African_landscape.jpg","GUID","2123","2","11/12/2020","0","M","left","points","B","-11","1","5","1","winpoints.bmp","B","points"
"null","<img style='border: 5px solid #ffffff; padding-right:15px;' src='stim/b/closeWater_pines_mountains.jpg' width='750px' height='500px'><img style='width:150px; height:150px; padding-right: 50px; padding-left: 50px; margin-bottom: 25px;' src='stim/winpoints.bmp'><img style='border: 5px solid #808080;'src='stim/b/African_landscape.jpg' width='750px' height='500px'>","null","html-keyboard-response","39","27555","0.0-7.0-2.10","","","","","","","","","","","","","","","","","","","","","","","","","","",""
"null","<img style='width:200px; height:200px; margin-left: 95px; margin-right: 95px;' src='stim/fixation.png'>","null","html-keyboard-response","40","28561","0.0-7.0-0.11","","","","","","","","","","","","","","","","","","","","","","","","","","",""
"317.6950002089143","<img src='stim/b/Trees_with_flowers.jpg' width='750px' height='500px'><img style='width:200px; height:200px; margin-bottom: 0px;' src='stim/fixation.png'><img src='stim/b/wheat_with_farmhouse.jpg' width='750px' height='500px'>","48","html-keyboard-response","41","28881","0.0-7.0-1.11","practice","ef","1","valid","6","e","avoid:lose","49","Trees_with_flowers.jpg","wheat_with_farmhouse.jpg","Trees_with_flowers.jpg","GUID","2123","2","11/12/2020","0","M","left","points","B","-12","1","0","0","losepoints.bmp","B","points"
"null","<img style='border: 5px solid #ffffff; padding-right:15px;' src='stim/b/Trees_with_flowers.jpg' width='750px' height='500px'><img style='width:150px; height:150px; padding-right: 50px; padding-left: 50px; margin-bottom: 25px;' src='stim/losepoints.bmp'><img style='border: 5px solid #808080;'src='stim/b/wheat_with_farmhouse.jpg' width='750px' height='500px'>","null","html-keyboard-response","42","29887","0.0-7.0-2.11","","","","","","","","","","","","","","","","","","","","","","","","","","",""
"5860.700000077486","<p>Great!</p> <p>Press the spacebar to continue.</p>","32","html-keyboard-response","43","36251","0.0-8.0","","","","","","","","","","","","","","","","","","","","","","","","","","",""
"1191.2799999117851","<p>Now you will see some more pictures.</p><p>Do as before by pressing the 1 to choose the picture on the left, and pressing the 0 to choose the picture on the right.</p><p>Press the spacebar to continue.</p>","32","html-keyboard-response","44","37443","0.0-9.0","","","","","","","","","","","","","","","","","","","","","","","","","","",""
"319.4850003346801","<h3 style=""color:red;"">For the picture pairs where you can win points:</h3><p>You will not win every time you choose the ""best"" picture;</p><p>However, one picture gets rewarded much more often than the other picture.</p><h3 style=""color:red;"">For the picture pairs where the best you can do is keep your points:</h3><p>You will not be able to keep your points every time you choose the ""best"" picture;</p><p>However, one picture allows you to keep your points much more often than the other picture.</p><p>Press the spacebar to continue.</p>","32","html-keyboard-response","45","37764","0.0-10.0","","","","","","","","","","","","","","","","","","","","","","","","","","",""
"236.20499996468425","<p>There is no ABSOLUTE right answer for any pair of pictures, but some pictures have a higher chance of either winning you some money or preventing you from losing money.</p><p>Try to pick the picture that you think is best.<p><p>Once you decide which picture in a pair of pictures is better, stick with it for the rest of the experiment (unless you determine that you were initially wrong about the selection).</p><p>Press the spacebar when you are ready to begin.</p>","32","html-keyboard-response","46","38001","0.0-11.0","","","","","","","","","","","","","","","","","","","","","","","","","","",""
"null","<p>Data saving...</p><div class=""sk-cube-grid""><div class=""sk-cube sk-cube1""></div><div class=""sk-cube sk-cube2""></div><div class=""sk-cube sk-cube3""></div><div class=""sk-cube sk-cube4""></div><div class=""sk-cube sk-cube5""></div><div class=""sk-cube sk-cube6""></div><div class=""sk-cube sk-cube7""></div><div class=""sk-cube sk-cube8""></div><div class=""sk-cube sk-cube9""></div></div><p>Do not close this window until the text dissapears.</p>","null","html-keyboard-response","47","43004","0.0-12.0","","","","","","","","","","","","","","","","","","","","","","","","","","",""
