"rt","stimulus","key_press","trial_type","trial_index","time_elapsed","internal_node_id","test_part","pair","pair_validity","pairTrialsPerBlock","good_stim","reward_type","correct_response","accuracy","trial_validty"
"1211.5","<h3 style=""color:#0ed145;"">Welcome to the experiment!</h3><p>Press the spacebar continue.</p>","32","html-keyboard-response","0","1251","0.0-0.0","","","","","","","","",""
"316.90000000000054","<p>In this task you will see two pictures side-by-side on the computer screen.</p><p>In each pair of pictures you see on the screen, one picture will be better than the other.</p><p>You need to figure out which picture in each pair is the better one.</p><p>Press the spacebar continue.</p>","32","html-keyboard-response","1","1571","0.0-1.0","","","","","","","","",""
"252.60000000000036","<p>The better picture in each pair will be more likely to either</p><p>A) win you some money,</p><p>or</p><p>B) allow you to keep the money you've already earned.</p><p>Press the spacebar continue.</p>","32","html-keyboard-response","2","1826","0.0-2.0","","","","","","","","",""
"388.90000000000054","<p>On those trials where you can A) win money, you will want to select the picture most likely to earn a nickel:</p><img style=""height:100px; width:100px"" src=""stim/win.bmp""</img><p>Because if you keep seeing this feedback:</p><img style=""height:125px; width:125px"" src=""stim/not_winner.png""></img><p>you probably aren't selecting the best picture...</p><p>Press the spacebar continue.</p>","32","html-keyboard-response","3","2218","0.0-3.0","","","","","","","","",""
"349.59999999999945","<p>On those trials where you can B) lose money, you will want to select the picture most likely to give this feedback:</p><img style=""height:125px; width:125px"" src=""stim/keep_money.png""></img><p>Because if you keep seeing this:</p><img style=""height:100px; width:100px"" src=""stim/lose.bmp""></img><p>you probably aren't selecting the best picture...</p>","32","html-keyboard-response","4","2570","0.0-4.0","","","","","","","","",""
"245.1999999999989","<p>Press the 1 key on your keyboard to select the picture on the LEFT.</p><p>Press the 2 key on your keyboard to select the picture on the RIGHT.</p><p>Press the spacebar continue.</p>","32","html-keyboard-response","5","2817","0.0-5.0","","","","","","","","",""
"1158.7000000000007","<p>First you will do some practice trials.</p> <p>Press either button when you are ready to begin.</p>","49","html-keyboard-response","6","3979","0.0-6.0","","","","","","","","",""
"null","<img style='width:200px; height:200px; margin-left: 95px; margin-right: 95px;' src='stim/fixation.png'>","null","html-keyboard-response","7","4493","0.0-7.0-0.0","fixation","","","","","","","",""
"1409.3999999999996","<img src='stim/b/Trees_with_flowers.jpg'><img style='width:200px; height:200px; margin-bottom: 0px;' src='stim/fixation.png'><img src='stim/b/wheat_with_farmhouse.jpg'>","49","html-keyboard-response","8","5905","0.0-7.0-1.0","practice","ef","1","6","e","avoid:lose","49","1",""
"null","<img style='border: 5px solid #808080;' src='stim/b/Trees_with_flowers.jpg'><img style='width:100px; height:100px; padding-right: 75px; padding-left: 75px; margin-bottom: 50px;' src='stim/keep_money.png'><img style='border: 5px solid #ffffff;  padding-left:15px;' src='stim/b/wheat_with_farmhouse.jpg'>","null","html-keyboard-response","9","6920","0.0-7.0-2.0","feedback","","","","","","","",""
"null","<img style='width:200px; height:200px; margin-left: 95px; margin-right: 95px;' src='stim/fixation.png'>","null","html-keyboard-response","10","7935","0.0-7.0-0.1","fixation","","","","","","","",""
"288.5","<img src='stim/b/wheat_with_farmhouse.jpg'><img style='width:200px; height:200px; margin-bottom: 0px;' src='stim/fixation.png'><img src='stim/b/Trees_with_flowers.jpg'>","49","html-keyboard-response","11","8226","0.0-7.0-1.1","practice","ef","1","6","e","avoid:lose","50","0",""
"null","<img style='border: 5px solid #808080;' src='stim/b/wheat_with_farmhouse.jpg'><img style='width:100px; height:100px; padding-right: 75px; padding-left: 75px; margin-bottom: 50px;' src='stim/lose.bmp'><img style='border: 5px solid #ffffff;  padding-left:15px;' src='stim/b/Trees_with_flowers.jpg'>","null","html-keyboard-response","12","9242","0.0-7.0-2.1","feedback","","","","","","","",""
"null","<img style='width:200px; height:200px; margin-left: 95px; margin-right: 95px;' src='stim/fixation.png'>","null","html-keyboard-response","13","10243","0.0-7.0-0.2","fixation","","","","","","","",""
"123.79999999999927","<img src='stim/b/closeWater_pines_mountains.jpg'><img style='width:200px; height:200px; margin-bottom: 0px;' src='stim/fixation.png'><img src='stim/b/African_landscape.jpg'>","49","html-keyboard-response","14","10370","0.0-7.0-1.2","practice","ab","1","6","a","win:stay","50","0",""
"null","<img style='border: 5px solid #808080;' src='stim/b/closeWater_pines_mountains.jpg'><img style='width:100px; height:100px; padding-right: 75px; padding-left: 75px; margin-bottom: 50px;' src='stim/not_winner.png'><img style='border: 5px solid #ffffff;  padding-left:15px;' src='stim/b/African_landscape.jpg'>","null","html-keyboard-response","15","11386","0.0-7.0-2.2","feedback","","","","","","","",""
"null","<img style='width:200px; height:200px; margin-left: 95px; margin-right: 95px;' src='stim/fixation.png'>","null","html-keyboard-response","16","12389","0.0-7.0-0.3","fixation","","","","","","","",""
"674.6000000000022","<img src='stim/b/African_landscape.jpg'><img style='width:200px; height:200px; margin-bottom: 0px;' src='stim/fixation.png'><img src='stim/b/closeWater_pines_mountains.jpg'>","49","html-keyboard-response","17","13066","0.0-7.0-1.3","practice","ab","1","6","a","win:stay","49","1",""
"null","<img style='border: 5px solid #808080;' src='stim/b/African_landscape.jpg'><img style='width:100px; height:100px; padding-right: 75px; padding-left: 75px; margin-bottom: 50px;' src='stim/win.bmp'><img style='border: 5px solid #ffffff;  padding-left:15px;' src='stim/b/closeWater_pines_mountains.jpg'>","null","html-keyboard-response","18","14086","0.0-7.0-2.3","feedback","","","","","","","",""
"null","<img style='width:200px; height:200px; margin-left: 95px; margin-right: 95px;' src='stim/fixation.png'>","null","html-keyboard-response","19","15102","0.0-7.0-0.4","fixation","","","","","","","",""
"3326.399999999998","<img src='stim/b/closeWater_pines_mountains.jpg'><img style='width:200px; height:200px; margin-bottom: 0px;' src='stim/fixation.png'><img src='stim/b/African_landscape.jpg'>","49","html-keyboard-response","20","18433","0.0-7.0-1.4","practice","ab","1","6","a","win:stay","50","0",""
"null","<img style='border: 5px solid #808080;' src='stim/b/closeWater_pines_mountains.jpg'><img style='width:100px; height:100px; padding-right: 75px; padding-left: 75px; margin-bottom: 50px;' src='stim/not_winner.png'><img style='border: 5px solid #ffffff;  padding-left:15px;' src='stim/b/African_landscape.jpg'>","null","html-keyboard-response","21","19440","0.0-7.0-2.4","feedback","","","","","","","",""
"null","<img style='width:200px; height:200px; margin-left: 95px; margin-right: 95px;' src='stim/fixation.png'>","null","html-keyboard-response","22","20441","0.0-7.0-0.5","fixation","","","","","","","",""
"366","<img src='stim/b/wheat_with_farmhouse.jpg'><img style='width:200px; height:200px; margin-bottom: 0px;' src='stim/fixation.png'><img src='stim/b/Trees_with_flowers.jpg'>","49","html-keyboard-response","23","20809","0.0-7.0-1.5","practice","ef","1","6","e","avoid:lose","50","0",""
"null","<img style='border: 5px solid #808080;' src='stim/b/wheat_with_farmhouse.jpg'><img style='width:100px; height:100px; padding-right: 75px; padding-left: 75px; margin-bottom: 50px;' src='stim/lose.bmp'><img style='border: 5px solid #ffffff;  padding-left:15px;' src='stim/b/Trees_with_flowers.jpg'>","null","html-keyboard-response","24","21825","0.0-7.0-2.5","feedback","","","","","","","",""
"null","<img style='width:200px; height:200px; margin-left: 95px; margin-right: 95px;' src='stim/fixation.png'>","null","html-keyboard-response","25","22839","0.0-7.0-0.6","fixation","","","","","","","",""
"319.1000000000022","<img src='stim/b/African_landscape.jpg'><img style='width:200px; height:200px; margin-bottom: 0px;' src='stim/fixation.png'><img src='stim/b/closeWater_pines_mountains.jpg'>","49","html-keyboard-response","26","23162","0.0-7.0-1.6","practice","ab","1","6","a","win:stay","49","1",""
"null","<img style='border: 5px solid #808080;' src='stim/b/African_landscape.jpg'><img style='width:100px; height:100px; padding-right: 75px; padding-left: 75px; margin-bottom: 50px;' src='stim/win.bmp'><img style='border: 5px solid #ffffff;  padding-left:15px;' src='stim/b/closeWater_pines_mountains.jpg'>","null","html-keyboard-response","27","24178","0.0-7.0-2.6","feedback","","","","","","","",""
"null","<img style='width:200px; height:200px; margin-left: 95px; margin-right: 95px;' src='stim/fixation.png'>","null","html-keyboard-response","28","25180","0.0-7.0-0.7","fixation","","","","","","","",""
"315.5","<img src='stim/b/Trees_with_flowers.jpg'><img style='width:200px; height:200px; margin-bottom: 0px;' src='stim/fixation.png'><img src='stim/b/wheat_with_farmhouse.jpg'>","49","html-keyboard-response","29","25498","0.0-7.0-1.7","practice","ef","1","6","e","avoid:lose","49","1",""
"null","<img style='border: 5px solid #808080;' src='stim/b/Trees_with_flowers.jpg'><img style='width:100px; height:100px; padding-right: 75px; padding-left: 75px; margin-bottom: 50px;' src='stim/keep_money.png'><img style='border: 5px solid #ffffff;  padding-left:15px;' src='stim/b/wheat_with_farmhouse.jpg'>","null","html-keyboard-response","30","26513","0.0-7.0-2.7","feedback","","","","","","","",""
"null","<img style='width:200px; height:200px; margin-left: 95px; margin-right: 95px;' src='stim/fixation.png'>","null","html-keyboard-response","31","27518","0.0-7.0-0.8","fixation","","","","","","","",""
"49.900000000001455","<img src='stim/b/wheat_with_farmhouse.jpg'><img style='width:200px; height:200px; margin-bottom: 0px;' src='stim/fixation.png'><img src='stim/b/Trees_with_flowers.jpg'>","49","html-keyboard-response","32","27570","0.0-7.0-1.8","practice","ef","1","6","e","avoid:lose","50","0",""
"null","<img style='border: 5px solid #808080;' src='stim/b/wheat_with_farmhouse.jpg'><img style='width:100px; height:100px; padding-right: 75px; padding-left: 75px; margin-bottom: 50px;' src='stim/lose.bmp'><img style='border: 5px solid #ffffff;  padding-left:15px;' src='stim/b/Trees_with_flowers.jpg'>","null","html-keyboard-response","33","28585","0.0-7.0-2.8","feedback","","","","","","","",""
"null","<img style='width:200px; height:200px; margin-left: 95px; margin-right: 95px;' src='stim/fixation.png'>","null","html-keyboard-response","34","29586","0.0-7.0-0.9","fixation","","","","","","","",""
"253","<img src='stim/b/Trees_with_flowers.jpg'><img style='width:200px; height:200px; margin-bottom: 0px;' src='stim/fixation.png'><img src='stim/b/wheat_with_farmhouse.jpg'>","49","html-keyboard-response","35","29842","0.0-7.0-1.9","practice","ef","1","6","e","avoid:lose","49","1",""
"null","<img style='border: 5px solid #808080;' src='stim/b/Trees_with_flowers.jpg'><img style='width:100px; height:100px; padding-right: 75px; padding-left: 75px; margin-bottom: 50px;' src='stim/keep_money.png'><img style='border: 5px solid #ffffff;  padding-left:15px;' src='stim/b/wheat_with_farmhouse.jpg'>","null","html-keyboard-response","36","30856","0.0-7.0-2.9","feedback","","","","","","","",""
"null","<img style='width:200px; height:200px; margin-left: 95px; margin-right: 95px;' src='stim/fixation.png'>","null","html-keyboard-response","37","31872","0.0-7.0-0.10","fixation","","","","","","","",""
"279.40000000000145","<img src='stim/b/African_landscape.jpg'><img style='width:200px; height:200px; margin-bottom: 0px;' src='stim/fixation.png'><img src='stim/b/closeWater_pines_mountains.jpg'>","49","html-keyboard-response","38","32154","0.0-7.0-1.10","practice","ab","1","6","a","win:stay","49","1",""
"null","<img style='border: 5px solid #808080;' src='stim/b/African_landscape.jpg'><img style='width:100px; height:100px; padding-right: 75px; padding-left: 75px; margin-bottom: 50px;' src='stim/win.bmp'><img style='border: 5px solid #ffffff;  padding-left:15px;' src='stim/b/closeWater_pines_mountains.jpg'>","null","html-keyboard-response","39","33169","0.0-7.0-2.10","feedback","","","","","","","",""
"null","<img style='width:200px; height:200px; margin-left: 95px; margin-right: 95px;' src='stim/fixation.png'>","null","html-keyboard-response","40","34185","0.0-7.0-0.11","fixation","","","","","","","",""
"262.59999999999854","<img src='stim/b/closeWater_pines_mountains.jpg'><img style='width:200px; height:200px; margin-bottom: 0px;' src='stim/fixation.png'><img src='stim/b/African_landscape.jpg'>","49","html-keyboard-response","41","34450","0.0-7.0-1.11","practice","ab","1","6","a","win:stay","50","0",""
"null","<img style='border: 5px solid #808080;' src='stim/b/closeWater_pines_mountains.jpg'><img style='width:100px; height:100px; padding-right: 75px; padding-left: 75px; margin-bottom: 50px;' src='stim/not_winner.png'><img style='border: 5px solid #ffffff;  padding-left:15px;' src='stim/b/African_landscape.jpg'>","null","html-keyboard-response","42","35467","0.0-7.0-2.11","feedback","","","","","","","",""
"null","<img style='width:200px; height:200px; margin-left: 95px; margin-right: 95px;' src='stim/fixation.png'>","null","html-keyboard-response","43","36484","0.0-8.0-0.0","fixation","","","","","","","",""
"515","<img src='stim/b/3d-landscape-background-10.jpg'><img style='width:200px; height:200px; margin-bottom: 0px;' src='stim/fixation.png'><img src='stim/b/2822landscape.jpg'>","49","html-keyboard-response","44","37001","0.0-8.0-1.0","training","ab","0.9","10","a","win:stay","49","1","valid"
"null","<img style='border: 5px solid #808080;' src='stim/b/3d-landscape-background-10.jpg'><img style='width:100px; height:100px; padding-right: 75px; padding-left: 75px; margin-bottom: 50px;' src='stim/win.bmp'><img style='border: 5px solid #ffffff;  padding-left:15px;' src='stim/b/2822landscape.jpg'>","null","html-keyboard-response","45","38017","0.0-8.0-2.0","feedback","","","","","","","",""
"null","<img style='width:200px; height:200px; margin-left: 95px; margin-right: 95px;' src='stim/fixation.png'>","null","html-keyboard-response","46","39019","0.0-8.0-0.1","fixation","","","","","","","",""
"315.90000000000145","<img src='stim/b/water_pines_distantMountains.jpg'><img style='width:200px; height:200px; margin-bottom: 0px;' src='stim/fixation.png'><img src='stim/b/water_fall_images.jpg'>","49","html-keyboard-response","47","39338","0.0-8.0-1.1","training","ef","0.9","10","e","avoid:lose","50","0","valid"
"null","<img style='border: 5px solid #808080;' src='stim/b/water_pines_distantMountains.jpg'><img style='width:100px; height:100px; padding-right: 75px; padding-left: 75px; margin-bottom: 50px;' src='stim/lose.bmp'><img style='border: 5px solid #ffffff;  padding-left:15px;' src='stim/b/water_fall_images.jpg'>","null","html-keyboard-response","48","40353","0.0-8.0-2.1","feedback","","","","","","","",""
"null","<img style='width:200px; height:200px; margin-left: 95px; margin-right: 95px;' src='stim/fixation.png'>","null","html-keyboard-response","49","41369","0.0-8.0-0.2","fixation","","","","","","","",""
"318.3999999999942","<img src='stim/b/waterfall_waterBelow.jpg'><img style='width:200px; height:200px; margin-bottom: 0px;' src='stim/fixation.png'><img src='stim/b/water_pines_snowy_moutain.jpg'>","49","html-keyboard-response","50","41690","0.0-8.0-1.2","training","gh","0.8","10","g","avoid:lose","50","0","invalid"
"null","<img style='border: 5px solid #808080;' src='stim/b/waterfall_waterBelow.jpg'><img style='width:100px; height:100px; padding-right: 75px; padding-left: 75px; margin-bottom: 50px;' src='stim/lose.bmp'><img style='border: 5px solid #ffffff;  padding-left:15px;' src='stim/b/water_pines_snowy_moutain.jpg'>","null","html-keyboard-response","51","42706","0.0-8.0-2.2","feedback","","","","","","","",""
"null","<img style='width:200px; height:200px; margin-left: 95px; margin-right: 95px;' src='stim/fixation.png'>","null","html-keyboard-response","52","43722","0.0-8.0-0.3","fixation","","","","","","","",""
"557.1999999999971","<img src='stim/b/waterfall_waterBelow.jpg'><img style='width:200px; height:200px; margin-bottom: 0px;' src='stim/fixation.png'><img src='stim/b/water_pines_snowy_moutain.jpg'>","49","html-keyboard-response","53","44282","0.0-8.0-1.3","training","gh","0.8","10","g","avoid:lose","50","0","valid"
"null","<img style='border: 5px solid #808080;' src='stim/b/waterfall_waterBelow.jpg'><img style='width:100px; height:100px; padding-right: 75px; padding-left: 75px; margin-bottom: 50px;' src='stim/lose.bmp'><img style='border: 5px solid #ffffff;  padding-left:15px;' src='stim/b/water_pines_snowy_moutain.jpg'>","null","html-keyboard-response","54","45297","0.0-8.0-2.3","feedback","","","","","","","",""
"null","<img style='width:200px; height:200px; margin-left: 95px; margin-right: 95px;' src='stim/fixation.png'>","null","html-keyboard-response","55","46298","0.0-8.0-0.4","fixation","","","","","","","",""
"373.40000000000145","<img src='stim/b/2822landscape.jpg'><img style='width:200px; height:200px; margin-bottom: 0px;' src='stim/fixation.png'><img src='stim/b/3d-landscape-background-10.jpg'>","49","html-keyboard-response","56","46674","0.0-8.0-1.4","training","ab","0.9","10","a","win:stay","50","0","valid"
"null","<img style='border: 5px solid #808080;' src='stim/b/2822landscape.jpg'><img style='width:100px; height:100px; padding-right: 75px; padding-left: 75px; margin-bottom: 50px;' src='stim/not_winner.png'><img style='border: 5px solid #ffffff;  padding-left:15px;' src='stim/b/3d-landscape-background-10.jpg'>","null","html-keyboard-response","57","47690","0.0-8.0-2.4","feedback","","","","","","","",""
"null","<img style='width:200px; height:200px; margin-left: 95px; margin-right: 95px;' src='stim/fixation.png'>","null","html-keyboard-response","58","48706","0.0-8.0-0.5","fixation","","","","","","","",""
"316.90000000000145","<img src='stim/b/water_pines_snowy_moutain.jpg'><img style='width:200px; height:200px; margin-bottom: 0px;' src='stim/fixation.png'><img src='stim/b/waterfall_waterBelow.jpg'>","49","html-keyboard-response","59","49026","0.0-8.0-1.5","training","gh","0.8","10","g","avoid:lose","49","1","invalid"
"null","<img style='border: 5px solid #808080;' src='stim/b/water_pines_snowy_moutain.jpg'><img style='width:100px; height:100px; padding-right: 75px; padding-left: 75px; margin-bottom: 50px;' src='stim/keep_money.png'><img style='border: 5px solid #ffffff;  padding-left:15px;' src='stim/b/waterfall_waterBelow.jpg'>","null","html-keyboard-response","60","50041","0.0-8.0-2.5","feedback","","","","","","","",""
"null","<img style='width:200px; height:200px; margin-left: 95px; margin-right: 95px;' src='stim/fixation.png'>","null","html-keyboard-response","61","51043","0.0-8.0-0.6","fixation","","","","","","","",""
"339.90000000000145","<img src='stim/b/2822landscape.jpg'><img style='width:200px; height:200px; margin-bottom: 0px;' src='stim/fixation.png'><img src='stim/b/3d-landscape-background-10.jpg'>","49","html-keyboard-response","62","51386","0.0-8.0-1.6","training","ab","0.9","10","a","win:stay","50","0","valid"
"null","<img style='border: 5px solid #808080;' src='stim/b/2822landscape.jpg'><img style='width:100px; height:100px; padding-right: 75px; padding-left: 75px; margin-bottom: 50px;' src='stim/not_winner.png'><img style='border: 5px solid #ffffff;  padding-left:15px;' src='stim/b/3d-landscape-background-10.jpg'>","null","html-keyboard-response","63","52401","0.0-8.0-2.6","feedback","","","","","","","",""
"null","<img style='width:200px; height:200px; margin-left: 95px; margin-right: 95px;' src='stim/fixation.png'>","null","html-keyboard-response","64","53403","0.0-8.0-0.7","fixation","","","","","","","",""
"355.6999999999971","<img src='stim/b/2822landscape.jpg'><img style='width:200px; height:200px; margin-bottom: 0px;' src='stim/fixation.png'><img src='stim/b/3d-landscape-background-10.jpg'>","49","html-keyboard-response","65","53762","0.0-8.0-1.7","training","ab","0.9","10","a","win:stay","50","0","valid"
"null","<img style='border: 5px solid #808080;' src='stim/b/2822landscape.jpg'><img style='width:100px; height:100px; padding-right: 75px; padding-left: 75px; margin-bottom: 50px;' src='stim/not_winner.png'><img style='border: 5px solid #ffffff;  padding-left:15px;' src='stim/b/3d-landscape-background-10.jpg'>","null","html-keyboard-response","66","54777","0.0-8.0-2.7","feedback","","","","","","","",""
"null","<img style='width:200px; height:200px; margin-left: 95px; margin-right: 95px;' src='stim/fixation.png'>","null","html-keyboard-response","67","55794","0.0-8.0-0.8","fixation","","","","","","","",""
"301.5","<img src='stim/b/waterfall_waterBelow.jpg'><img style='width:200px; height:200px; margin-bottom: 0px;' src='stim/fixation.png'><img src='stim/b/water_pines_snowy_moutain.jpg'>","49","html-keyboard-response","68","56098","0.0-8.0-1.8","training","gh","0.8","10","g","avoid:lose","50","0","invalid"
"null","<img style='border: 5px solid #808080;' src='stim/b/waterfall_waterBelow.jpg'><img style='width:100px; height:100px; padding-right: 75px; padding-left: 75px; margin-bottom: 50px;' src='stim/lose.bmp'><img style='border: 5px solid #ffffff;  padding-left:15px;' src='stim/b/water_pines_snowy_moutain.jpg'>","null","html-keyboard-response","69","57116","0.0-8.0-2.8","feedback","","","","","","","",""
"null","<img style='width:200px; height:200px; margin-left: 95px; margin-right: 95px;' src='stim/fixation.png'>","null","html-keyboard-response","70","58130","0.0-8.0-0.9","fixation","","","","","","","",""
"356.3999999999942","<img src='stim/b/lsingeltree_tallergrass_clouds.jpg'><img style='width:200px; height:200px; margin-bottom: 0px;' src='stim/fixation.png'><img src='stim/b/orangey_field.jpg'>","49","html-keyboard-response","71","58490","0.0-8.0-1.9","training","cd","0.8","10","c","win:stay","49","1","invalid"
"null","<img style='border: 5px solid #808080;' src='stim/b/lsingeltree_tallergrass_clouds.jpg'><img style='width:100px; height:100px; padding-right: 75px; padding-left: 75px; margin-bottom: 50px;' src='stim/win.bmp'><img style='border: 5px solid #ffffff;  padding-left:15px;' src='stim/b/orangey_field.jpg'>","null","html-keyboard-response","72","59506","0.0-8.0-2.9","feedback","","","","","","","",""
"null","<img style='width:200px; height:200px; margin-left: 95px; margin-right: 95px;' src='stim/fixation.png'>","null","html-keyboard-response","73","60520","0.0-8.0-0.10","fixation","","","","","","","",""
"375.1000000000058","<img src='stim/b/3d-landscape-background-10.jpg'><img style='width:200px; height:200px; margin-bottom: 0px;' src='stim/fixation.png'><img src='stim/b/2822landscape.jpg'>","49","html-keyboard-response","74","60898","0.0-8.0-1.10","training","ab","0.9","10","a","win:stay","49","1","invalid"
"null","<img style='border: 5px solid #808080;' src='stim/b/3d-landscape-background-10.jpg'><img style='width:100px; height:100px; padding-right: 75px; padding-left: 75px; margin-bottom: 50px;' src='stim/win.bmp'><img style='border: 5px solid #ffffff;  padding-left:15px;' src='stim/b/2822landscape.jpg'>","null","html-keyboard-response","75","61916","0.0-8.0-2.10","feedback","","","","","","","",""
"null","<img style='width:200px; height:200px; margin-left: 95px; margin-right: 95px;' src='stim/fixation.png'>","null","html-keyboard-response","76","62930","0.0-8.0-0.11","fixation","","","","","","","",""
"333.6999999999971","<img src='stim/b/2822landscape.jpg'><img style='width:200px; height:200px; margin-bottom: 0px;' src='stim/fixation.png'><img src='stim/b/3d-landscape-background-10.jpg'>","49","html-keyboard-response","77","63267","0.0-8.0-1.11","training","ab","0.9","10","a","win:stay","50","0","valid"
"null","<img style='border: 5px solid #808080;' src='stim/b/2822landscape.jpg'><img style='width:100px; height:100px; padding-right: 75px; padding-left: 75px; margin-bottom: 50px;' src='stim/not_winner.png'><img style='border: 5px solid #ffffff;  padding-left:15px;' src='stim/b/3d-landscape-background-10.jpg'>","null","html-keyboard-response","78","64283","0.0-8.0-2.11","feedback","","","","","","","",""
"null","<img style='width:200px; height:200px; margin-left: 95px; margin-right: 95px;' src='stim/fixation.png'>","null","html-keyboard-response","79","65299","0.0-8.0-0.12","fixation","","","","","","","",""
"324.3999999999942","<img src='stim/b/lsingeltree_tallergrass_clouds.jpg'><img style='width:200px; height:200px; margin-bottom: 0px;' src='stim/fixation.png'><img src='stim/b/orangey_field.jpg'>","49","html-keyboard-response","80","65626","0.0-8.0-1.12","training","cd","0.8","10","c","win:stay","49","1","invalid"
"null","<img style='border: 5px solid #808080;' src='stim/b/lsingeltree_tallergrass_clouds.jpg'><img style='width:100px; height:100px; padding-right: 75px; padding-left: 75px; margin-bottom: 50px;' src='stim/win.bmp'><img style='border: 5px solid #ffffff;  padding-left:15px;' src='stim/b/orangey_field.jpg'>","null","html-keyboard-response","81","66630","0.0-8.0-2.12","feedback","","","","","","","",""
"null","<img style='width:200px; height:200px; margin-left: 95px; margin-right: 95px;' src='stim/fixation.png'>","null","html-keyboard-response","82","67648","0.0-8.0-0.13","fixation","","","","","","","",""
"352.3000000000029","<img src='stim/b/waterfall_waterBelow.jpg'><img style='width:200px; height:200px; margin-bottom: 0px;' src='stim/fixation.png'><img src='stim/b/water_pines_snowy_moutain.jpg'>","49","html-keyboard-response","83","68002","0.0-8.0-1.13","training","gh","0.8","10","g","avoid:lose","50","0","valid"
"null","<img style='border: 5px solid #808080;' src='stim/b/waterfall_waterBelow.jpg'><img style='width:100px; height:100px; padding-right: 75px; padding-left: 75px; margin-bottom: 50px;' src='stim/lose.bmp'><img style='border: 5px solid #ffffff;  padding-left:15px;' src='stim/b/water_pines_snowy_moutain.jpg'>","null","html-keyboard-response","84","69015","0.0-8.0-2.13","feedback","","","","","","","",""
"null","<img style='width:200px; height:200px; margin-left: 95px; margin-right: 95px;' src='stim/fixation.png'>","null","html-keyboard-response","85","70030","0.0-8.0-0.14","fixation","","","","","","","",""
"457.40000000000873","<img src='stim/b/3d-landscape-background-10.jpg'><img style='width:200px; height:200px; margin-bottom: 0px;' src='stim/fixation.png'><img src='stim/b/2822landscape.jpg'>","49","html-keyboard-response","86","70489","0.0-8.0-1.14","training","ab","0.9","10","a","win:stay","49","1","valid"
"null","<img style='border: 5px solid #808080;' src='stim/b/3d-landscape-background-10.jpg'><img style='width:100px; height:100px; padding-right: 75px; padding-left: 75px; margin-bottom: 50px;' src='stim/win.bmp'><img style='border: 5px solid #ffffff;  padding-left:15px;' src='stim/b/2822landscape.jpg'>","null","html-keyboard-response","87","71507","0.0-8.0-2.14","feedback","","","","","","","",""
"null","<img style='width:200px; height:200px; margin-left: 95px; margin-right: 95px;' src='stim/fixation.png'>","null","html-keyboard-response","88","72523","0.0-8.0-0.15","fixation","","","","","","","",""
"300.70000000001164","<img src='stim/b/lsingeltree_tallergrass_clouds.jpg'><img style='width:200px; height:200px; margin-bottom: 0px;' src='stim/fixation.png'><img src='stim/b/orangey_field.jpg'>","49","html-keyboard-response","89","72826","0.0-8.0-1.15","training","cd","0.8","10","c","win:stay","49","1","valid"
"null","<img style='border: 5px solid #808080;' src='stim/b/lsingeltree_tallergrass_clouds.jpg'><img style='width:100px; height:100px; padding-right: 75px; padding-left: 75px; margin-bottom: 50px;' src='stim/win.bmp'><img style='border: 5px solid #ffffff;  padding-left:15px;' src='stim/b/orangey_field.jpg'>","null","html-keyboard-response","90","73843","0.0-8.0-2.15","feedback","","","","","","","",""
"null","<img style='width:200px; height:200px; margin-left: 95px; margin-right: 95px;' src='stim/fixation.png'>","null","html-keyboard-response","91","74860","0.0-8.0-0.16","fixation","","","","","","","",""
"300.1999999999971","<img src='stim/b/water_pines_distantMountains.jpg'><img style='width:200px; height:200px; margin-bottom: 0px;' src='stim/fixation.png'><img src='stim/b/water_fall_images.jpg'>","49","html-keyboard-response","92","75162","0.0-8.0-1.16","training","ef","0.9","10","e","avoid:lose","50","0","valid"
"null","<img style='border: 5px solid #808080;' src='stim/b/water_pines_distantMountains.jpg'><img style='width:100px; height:100px; padding-right: 75px; padding-left: 75px; margin-bottom: 50px;' src='stim/lose.bmp'><img style='border: 5px solid #ffffff;  padding-left:15px;' src='stim/b/water_fall_images.jpg'>","null","html-keyboard-response","93","76180","0.0-8.0-2.16","feedback","","","","","","","",""
"null","<img style='width:200px; height:200px; margin-left: 95px; margin-right: 95px;' src='stim/fixation.png'>","null","html-keyboard-response","94","77195","0.0-8.0-0.17","fixation","","","","","","","",""
"324.8000000000029","<img src='stim/b/water_pines_snowy_moutain.jpg'><img style='width:200px; height:200px; margin-bottom: 0px;' src='stim/fixation.png'><img src='stim/b/waterfall_waterBelow.jpg'>","49","html-keyboard-response","95","77522","0.0-8.0-1.17","training","gh","0.8","10","g","avoid:lose","49","1","valid"
"null","<img style='border: 5px solid #808080;' src='stim/b/water_pines_snowy_moutain.jpg'><img style='width:100px; height:100px; padding-right: 75px; padding-left: 75px; margin-bottom: 50px;' src='stim/keep_money.png'><img style='border: 5px solid #ffffff;  padding-left:15px;' src='stim/b/waterfall_waterBelow.jpg'>","null","html-keyboard-response","96","78539","0.0-8.0-2.17","feedback","","","","","","","",""
"null","<img style='width:200px; height:200px; margin-left: 95px; margin-right: 95px;' src='stim/fixation.png'>","null","html-keyboard-response","97","79553","0.0-8.0-0.18","fixation","","","","","","","",""
"342.29999999998836","<img src='stim/b/waterfall_waterBelow.jpg'><img style='width:200px; height:200px; margin-bottom: 0px;' src='stim/fixation.png'><img src='stim/b/water_pines_snowy_moutain.jpg'>","49","html-keyboard-response","98","79898","0.0-8.0-1.18","training","gh","0.8","10","g","avoid:lose","50","0","valid"
"null","<img style='border: 5px solid #808080;' src='stim/b/waterfall_waterBelow.jpg'><img style='width:100px; height:100px; padding-right: 75px; padding-left: 75px; margin-bottom: 50px;' src='stim/lose.bmp'><img style='border: 5px solid #ffffff;  padding-left:15px;' src='stim/b/water_pines_snowy_moutain.jpg'>","null","html-keyboard-response","99","80915","0.0-8.0-2.18","feedback","","","","","","","",""
"null","<img style='width:200px; height:200px; margin-left: 95px; margin-right: 95px;' src='stim/fixation.png'>","null","html-keyboard-response","100","81932","0.0-8.0-0.19","fixation","","","","","","","",""
"315.5","<img src='stim/b/waterfall_waterBelow.jpg'><img style='width:200px; height:200px; margin-bottom: 0px;' src='stim/fixation.png'><img src='stim/b/water_pines_snowy_moutain.jpg'>","49","html-keyboard-response","101","82249","0.0-8.0-1.19","training","gh","0.8","10","g","avoid:lose","50","0","valid"
"null","<img style='border: 5px solid #808080;' src='stim/b/waterfall_waterBelow.jpg'><img style='width:100px; height:100px; padding-right: 75px; padding-left: 75px; margin-bottom: 50px;' src='stim/lose.bmp'><img style='border: 5px solid #ffffff;  padding-left:15px;' src='stim/b/water_pines_snowy_moutain.jpg'>","null","html-keyboard-response","102","83267","0.0-8.0-2.19","feedback","","","","","","","",""
"null","<img style='width:200px; height:200px; margin-left: 95px; margin-right: 95px;' src='stim/fixation.png'>","null","html-keyboard-response","103","84281","0.0-8.0-0.20","fixation","","","","","","","",""
"342.09999999999127","<img src='stim/b/water_fall_images.jpg'><img style='width:200px; height:200px; margin-bottom: 0px;' src='stim/fixation.png'><img src='stim/b/water_pines_distantMountains.jpg'>","49","html-keyboard-response","104","84625","0.0-8.0-1.20","training","ef","0.9","10","e","avoid:lose","49","1","valid"
"null","<img style='border: 5px solid #808080;' src='stim/b/water_fall_images.jpg'><img style='width:100px; height:100px; padding-right: 75px; padding-left: 75px; margin-bottom: 50px;' src='stim/keep_money.png'><img style='border: 5px solid #ffffff;  padding-left:15px;' src='stim/b/water_pines_distantMountains.jpg'>","null","html-keyboard-response","105","85630","0.0-8.0-2.20","feedback","","","","","","","",""
"null","<img style='width:200px; height:200px; margin-left: 95px; margin-right: 95px;' src='stim/fixation.png'>","null","html-keyboard-response","106","86632","0.0-8.0-0.21","fixation","","","","","","","",""
"335.09999999999127","<img src='stim/b/orangey_field.jpg'><img style='width:200px; height:200px; margin-bottom: 0px;' src='stim/fixation.png'><img src='stim/b/lsingeltree_tallergrass_clouds.jpg'>","49","html-keyboard-response","107","86970","0.0-8.0-1.21","training","cd","0.8","10","c","win:stay","50","0","valid"
"null","<img style='border: 5px solid #808080;' src='stim/b/orangey_field.jpg'><img style='width:100px; height:100px; padding-right: 75px; padding-left: 75px; margin-bottom: 50px;' src='stim/not_winner.png'><img style='border: 5px solid #ffffff;  padding-left:15px;' src='stim/b/lsingeltree_tallergrass_clouds.jpg'>","null","html-keyboard-response","108","87988","0.0-8.0-2.21","feedback","","","","","","","",""
"null","<img style='width:200px; height:200px; margin-left: 95px; margin-right: 95px;' src='stim/fixation.png'>","null","html-keyboard-response","109","89004","0.0-8.0-0.22","fixation","","","","","","","",""
"291","<img src='stim/b/waterfall_waterBelow.jpg'><img style='width:200px; height:200px; margin-bottom: 0px;' src='stim/fixation.png'><img src='stim/b/water_pines_snowy_moutain.jpg'>","49","html-keyboard-response","110","89298","0.0-8.0-1.22","training","gh","0.8","10","g","avoid:lose","50","0","valid"
"null","<img style='border: 5px solid #808080;' src='stim/b/waterfall_waterBelow.jpg'><img style='width:100px; height:100px; padding-right: 75px; padding-left: 75px; margin-bottom: 50px;' src='stim/lose.bmp'><img style='border: 5px solid #ffffff;  padding-left:15px;' src='stim/b/water_pines_snowy_moutain.jpg'>","null","html-keyboard-response","111","90302","0.0-8.0-2.22","feedback","","","","","","","",""
"null","<img style='width:200px; height:200px; margin-left: 95px; margin-right: 95px;' src='stim/fixation.png'>","null","html-keyboard-response","112","91316","0.0-8.0-0.23","fixation","","","","","","","",""
"314.8999999999942","<img src='stim/b/lsingeltree_tallergrass_clouds.jpg'><img style='width:200px; height:200px; margin-bottom: 0px;' src='stim/fixation.png'><img src='stim/b/orangey_field.jpg'>","49","html-keyboard-response","113","91634","0.0-8.0-1.23","training","cd","0.8","10","c","win:stay","49","1","valid"
"null","<img style='border: 5px solid #808080;' src='stim/b/lsingeltree_tallergrass_clouds.jpg'><img style='width:100px; height:100px; padding-right: 75px; padding-left: 75px; margin-bottom: 50px;' src='stim/win.bmp'><img style='border: 5px solid #ffffff;  padding-left:15px;' src='stim/b/orangey_field.jpg'>","null","html-keyboard-response","114","92650","0.0-8.0-2.23","feedback","","","","","","","",""
"null","<img style='width:200px; height:200px; margin-left: 95px; margin-right: 95px;' src='stim/fixation.png'>","null","html-keyboard-response","115","93666","0.0-8.0-0.24","fixation","","","","","","","",""
"269.1999999999971","<img src='stim/b/water_fall_images.jpg'><img style='width:200px; height:200px; margin-bottom: 0px;' src='stim/fixation.png'><img src='stim/b/water_pines_distantMountains.jpg'>","49","html-keyboard-response","116","93938","0.0-8.0-1.24","training","ef","0.9","10","e","avoid:lose","49","1","valid"
"null","<img style='border: 5px solid #808080;' src='stim/b/water_fall_images.jpg'><img style='width:100px; height:100px; padding-right: 75px; padding-left: 75px; margin-bottom: 50px;' src='stim/keep_money.png'><img style='border: 5px solid #ffffff;  padding-left:15px;' src='stim/b/water_pines_distantMountains.jpg'>","null","html-keyboard-response","117","94947","0.0-8.0-2.24","feedback","","","","","","","",""
"null","<img style='width:200px; height:200px; margin-left: 95px; margin-right: 95px;' src='stim/fixation.png'>","null","html-keyboard-response","118","95960","0.0-8.0-0.25","fixation","","","","","","","",""
"303.1999999999971","<img src='stim/b/lsingeltree_tallergrass_clouds.jpg'><img style='width:200px; height:200px; margin-bottom: 0px;' src='stim/fixation.png'><img src='stim/b/orangey_field.jpg'>","49","html-keyboard-response","119","96266","0.0-8.0-1.25","training","cd","0.8","10","c","win:stay","49","1","valid"
"null","<img style='border: 5px solid #808080;' src='stim/b/lsingeltree_tallergrass_clouds.jpg'><img style='width:100px; height:100px; padding-right: 75px; padding-left: 75px; margin-bottom: 50px;' src='stim/win.bmp'><img style='border: 5px solid #ffffff;  padding-left:15px;' src='stim/b/orangey_field.jpg'>","null","html-keyboard-response","120","97283","0.0-8.0-2.25","feedback","","","","","","","",""
"null","<img style='width:200px; height:200px; margin-left: 95px; margin-right: 95px;' src='stim/fixation.png'>","null","html-keyboard-response","121","98299","0.0-8.0-0.26","fixation","","","","","","","",""
"300.3000000000029","<img src='stim/b/orangey_field.jpg'><img style='width:200px; height:200px; margin-bottom: 0px;' src='stim/fixation.png'><img src='stim/b/lsingeltree_tallergrass_clouds.jpg'>","49","html-keyboard-response","122","98602","0.0-8.0-1.26","training","cd","0.8","10","c","win:stay","50","0","valid"
"null","<img style='border: 5px solid #808080;' src='stim/b/orangey_field.jpg'><img style='width:100px; height:100px; padding-right: 75px; padding-left: 75px; margin-bottom: 50px;' src='stim/not_winner.png'><img style='border: 5px solid #ffffff;  padding-left:15px;' src='stim/b/lsingeltree_tallergrass_clouds.jpg'>","null","html-keyboard-response","123","99618","0.0-8.0-2.26","feedback","","","","","","","",""
"null","<img style='width:200px; height:200px; margin-left: 95px; margin-right: 95px;' src='stim/fixation.png'>","null","html-keyboard-response","124","100619","0.0-8.0-0.27","fixation","","","","","","","",""
"300.1000000000058","<img src='stim/b/water_fall_images.jpg'><img style='width:200px; height:200px; margin-bottom: 0px;' src='stim/fixation.png'><img src='stim/b/water_pines_distantMountains.jpg'>","49","html-keyboard-response","125","100922","0.0-8.0-1.27","training","ef","0.9","10","e","avoid:lose","49","1","valid"
"null","<img style='border: 5px solid #808080;' src='stim/b/water_fall_images.jpg'><img style='width:100px; height:100px; padding-right: 75px; padding-left: 75px; margin-bottom: 50px;' src='stim/keep_money.png'><img style='border: 5px solid #ffffff;  padding-left:15px;' src='stim/b/water_pines_distantMountains.jpg'>","null","html-keyboard-response","126","101939","0.0-8.0-2.27","feedback","","","","","","","",""
"null","<img style='width:200px; height:200px; margin-left: 95px; margin-right: 95px;' src='stim/fixation.png'>","null","html-keyboard-response","127","102952","0.0-8.0-0.28","fixation","","","","","","","",""
"295.09999999999127","<img src='stim/b/water_pines_snowy_moutain.jpg'><img style='width:200px; height:200px; margin-bottom: 0px;' src='stim/fixation.png'><img src='stim/b/waterfall_waterBelow.jpg'>","49","html-keyboard-response","128","103250","0.0-8.0-1.28","training","gh","0.8","10","g","avoid:lose","49","1","valid"
"null","<img style='border: 5px solid #808080;' src='stim/b/water_pines_snowy_moutain.jpg'><img style='width:100px; height:100px; padding-right: 75px; padding-left: 75px; margin-bottom: 50px;' src='stim/keep_money.png'><img style='border: 5px solid #ffffff;  padding-left:15px;' src='stim/b/waterfall_waterBelow.jpg'>","null","html-keyboard-response","129","104259","0.0-8.0-2.28","feedback","","","","","","","",""
"null","<img style='width:200px; height:200px; margin-left: 95px; margin-right: 95px;' src='stim/fixation.png'>","null","html-keyboard-response","130","105261","0.0-8.0-0.29","fixation","","","","","","","",""
"290","<img src='stim/b/waterfall_waterBelow.jpg'><img style='width:200px; height:200px; margin-bottom: 0px;' src='stim/fixation.png'><img src='stim/b/water_pines_snowy_moutain.jpg'>","49","html-keyboard-response","131","105554","0.0-8.0-1.29","training","gh","0.8","10","g","avoid:lose","50","0","valid"
"null","<img style='border: 5px solid #808080;' src='stim/b/waterfall_waterBelow.jpg'><img style='width:100px; height:100px; padding-right: 75px; padding-left: 75px; margin-bottom: 50px;' src='stim/lose.bmp'><img style='border: 5px solid #ffffff;  padding-left:15px;' src='stim/b/water_pines_snowy_moutain.jpg'>","null","html-keyboard-response","132","106572","0.0-8.0-2.29","feedback","","","","","","","",""
"null","<img style='width:200px; height:200px; margin-left: 95px; margin-right: 95px;' src='stim/fixation.png'>","null","html-keyboard-response","133","107587","0.0-8.0-0.30","fixation","","","","","","","",""
"251.90000000000873","<img src='stim/b/orangey_field.jpg'><img style='width:200px; height:200px; margin-bottom: 0px;' src='stim/fixation.png'><img src='stim/b/lsingeltree_tallergrass_clouds.jpg'>","49","html-keyboard-response","134","107841","0.0-8.0-1.30","training","cd","0.8","10","c","win:stay","50","0","valid"
"null","<img style='border: 5px solid #808080;' src='stim/b/orangey_field.jpg'><img style='width:100px; height:100px; padding-right: 75px; padding-left: 75px; margin-bottom: 50px;' src='stim/not_winner.png'><img style='border: 5px solid #ffffff;  padding-left:15px;' src='stim/b/lsingeltree_tallergrass_clouds.jpg'>","null","html-keyboard-response","135","108858","0.0-8.0-2.30","feedback","","","","","","","",""
"null","<img style='width:200px; height:200px; margin-left: 95px; margin-right: 95px;' src='stim/fixation.png'>","null","html-keyboard-response","136","109873","0.0-8.0-0.31","fixation","","","","","","","",""
"285.90000000000873","<img src='stim/b/3d-landscape-background-10.jpg'><img style='width:200px; height:200px; margin-bottom: 0px;' src='stim/fixation.png'><img src='stim/b/2822landscape.jpg'>","49","html-keyboard-response","137","110162","0.0-8.0-1.31","training","ab","0.9","10","a","win:stay","49","1","valid"
"null","<img style='border: 5px solid #808080;' src='stim/b/3d-landscape-background-10.jpg'><img style='width:100px; height:100px; padding-right: 75px; padding-left: 75px; margin-bottom: 50px;' src='stim/win.bmp'><img style='border: 5px solid #ffffff;  padding-left:15px;' src='stim/b/2822landscape.jpg'>","null","html-keyboard-response","138","111179","0.0-8.0-2.31","feedback","","","","","","","",""
"null","<img style='width:200px; height:200px; margin-left: 95px; margin-right: 95px;' src='stim/fixation.png'>","null","html-keyboard-response","139","112194","0.0-8.0-0.32","fixation","","","","","","","",""
"244.8000000000029","<img src='stim/b/3d-landscape-background-10.jpg'><img style='width:200px; height:200px; margin-bottom: 0px;' src='stim/fixation.png'><img src='stim/b/2822landscape.jpg'>","49","html-keyboard-response","140","112441","0.0-8.0-1.32","training","ab","0.9","10","a","win:stay","49","1","valid"
"null","<img style='border: 5px solid #808080;' src='stim/b/3d-landscape-background-10.jpg'><img style='width:100px; height:100px; padding-right: 75px; padding-left: 75px; margin-bottom: 50px;' src='stim/win.bmp'><img style='border: 5px solid #ffffff;  padding-left:15px;' src='stim/b/2822landscape.jpg'>","null","html-keyboard-response","141","113461","0.0-8.0-2.32","feedback","","","","","","","",""
"null","<img style='width:200px; height:200px; margin-left: 95px; margin-right: 95px;' src='stim/fixation.png'>","null","html-keyboard-response","142","114465","0.0-8.0-0.33","fixation","","","","","","","",""
"118.80000000000291","<img src='stim/b/water_pines_distantMountains.jpg'><img style='width:200px; height:200px; margin-bottom: 0px;' src='stim/fixation.png'><img src='stim/b/water_fall_images.jpg'>","49","html-keyboard-response","143","114586","0.0-8.0-1.33","training","ef","0.9","10","e","avoid:lose","50","0","invalid"
"null","<img style='border: 5px solid #808080;' src='stim/b/water_pines_distantMountains.jpg'><img style='width:100px; height:100px; padding-right: 75px; padding-left: 75px; margin-bottom: 50px;' src='stim/lose.bmp'><img style='border: 5px solid #ffffff;  padding-left:15px;' src='stim/b/water_fall_images.jpg'>","null","html-keyboard-response","144","115602","0.0-8.0-2.33","feedback","","","","","","","",""
"null","<img style='width:200px; height:200px; margin-left: 95px; margin-right: 95px;' src='stim/fixation.png'>","null","html-keyboard-response","145","116618","0.0-8.0-0.34","fixation","","","","","","","",""
"229.3000000000029","<img src='stim/b/water_pines_distantMountains.jpg'><img style='width:200px; height:200px; margin-bottom: 0px;' src='stim/fixation.png'><img src='stim/b/water_fall_images.jpg'>","49","html-keyboard-response","146","116850","0.0-8.0-1.34","training","ef","0.9","10","e","avoid:lose","50","0","valid"
"null","<img style='border: 5px solid #808080;' src='stim/b/water_pines_distantMountains.jpg'><img style='width:100px; height:100px; padding-right: 75px; padding-left: 75px; margin-bottom: 50px;' src='stim/lose.bmp'><img style='border: 5px solid #ffffff;  padding-left:15px;' src='stim/b/water_fall_images.jpg'>","null","html-keyboard-response","147","117866","0.0-8.0-2.34","feedback","","","","","","","",""
"null","<img style='width:200px; height:200px; margin-left: 95px; margin-right: 95px;' src='stim/fixation.png'>","null","html-keyboard-response","148","118881","0.0-8.0-0.35","fixation","","","","","","","",""
"342.1000000000058","<img src='stim/b/water_pines_snowy_moutain.jpg'><img style='width:200px; height:200px; margin-bottom: 0px;' src='stim/fixation.png'><img src='stim/b/waterfall_waterBelow.jpg'>","49","html-keyboard-response","149","119226","0.0-8.0-1.35","training","gh","0.8","10","g","avoid:lose","49","1","valid"
"null","<img style='border: 5px solid #808080;' src='stim/b/water_pines_snowy_moutain.jpg'><img style='width:100px; height:100px; padding-right: 75px; padding-left: 75px; margin-bottom: 50px;' src='stim/keep_money.png'><img style='border: 5px solid #ffffff;  padding-left:15px;' src='stim/b/waterfall_waterBelow.jpg'>","null","html-keyboard-response","150","120243","0.0-8.0-2.35","feedback","","","","","","","",""
"null","<img style='width:200px; height:200px; margin-left: 95px; margin-right: 95px;' src='stim/fixation.png'>","null","html-keyboard-response","151","121258","0.0-8.0-0.36","fixation","","","","","","","",""
"260.90000000000873","<img src='stim/b/orangey_field.jpg'><img style='width:200px; height:200px; margin-bottom: 0px;' src='stim/fixation.png'><img src='stim/b/lsingeltree_tallergrass_clouds.jpg'>","49","html-keyboard-response","152","121522","0.0-8.0-1.36","training","cd","0.8","10","c","win:stay","50","0","valid"
"null","<img style='border: 5px solid #808080;' src='stim/b/orangey_field.jpg'><img style='width:100px; height:100px; padding-right: 75px; padding-left: 75px; margin-bottom: 50px;' src='stim/not_winner.png'><img style='border: 5px solid #ffffff;  padding-left:15px;' src='stim/b/lsingeltree_tallergrass_clouds.jpg'>","null","html-keyboard-response","153","122541","0.0-8.0-2.36","feedback","","","","","","","",""
"null","<img style='width:200px; height:200px; margin-left: 95px; margin-right: 95px;' src='stim/fixation.png'>","null","html-keyboard-response","154","123558","0.0-8.0-0.37","fixation","","","","","","","",""
"265","<img src='stim/b/2822landscape.jpg'><img style='width:200px; height:200px; margin-bottom: 0px;' src='stim/fixation.png'><img src='stim/b/3d-landscape-background-10.jpg'>","49","html-keyboard-response","155","123825","0.0-8.0-1.37","training","ab","0.9","10","a","win:stay","50","0","valid"
"null","<img style='border: 5px solid #808080;' src='stim/b/2822landscape.jpg'><img style='width:100px; height:100px; padding-right: 75px; padding-left: 75px; margin-bottom: 50px;' src='stim/not_winner.png'><img style='border: 5px solid #ffffff;  padding-left:15px;' src='stim/b/3d-landscape-background-10.jpg'>","null","html-keyboard-response","156","124843","0.0-8.0-2.37","feedback","","","","","","","",""
"null","<img style='width:200px; height:200px; margin-left: 95px; margin-right: 95px;' src='stim/fixation.png'>","null","html-keyboard-response","157","125859","0.0-8.0-0.38","fixation","","","","","","","",""
"276.20000000001164","<img src='stim/b/water_fall_images.jpg'><img style='width:200px; height:200px; margin-bottom: 0px;' src='stim/fixation.png'><img src='stim/b/water_pines_distantMountains.jpg'>","49","html-keyboard-response","158","126138","0.0-8.0-1.38","training","ef","0.9","10","e","avoid:lose","49","1","valid"
"null","<img style='border: 5px solid #808080;' src='stim/b/water_fall_images.jpg'><img style='width:100px; height:100px; padding-right: 75px; padding-left: 75px; margin-bottom: 50px;' src='stim/keep_money.png'><img style='border: 5px solid #ffffff;  padding-left:15px;' src='stim/b/water_pines_distantMountains.jpg'>","null","html-keyboard-response","159","127141","0.0-8.0-2.38","feedback","","","","","","","",""
"null","<img style='width:200px; height:200px; margin-left: 95px; margin-right: 95px;' src='stim/fixation.png'>","null","html-keyboard-response","160","128155","0.0-8.0-0.39","fixation","","","","","","","",""
"99.69999999998254","<img src='stim/b/lsingeltree_tallergrass_clouds.jpg'><img style='width:200px; height:200px; margin-bottom: 0px;' src='stim/fixation.png'><img src='stim/b/orangey_field.jpg'>","49","html-keyboard-response","161","128258","0.0-8.0-1.39","training","cd","0.8","10","c","win:stay","49","1","valid"
"null","<img style='border: 5px solid #808080;' src='stim/b/lsingeltree_tallergrass_clouds.jpg'><img style='width:100px; height:100px; padding-right: 75px; padding-left: 75px; margin-bottom: 50px;' src='stim/win.bmp'><img style='border: 5px solid #ffffff;  padding-left:15px;' src='stim/b/orangey_field.jpg'>","null","html-keyboard-response","162","129274","0.0-8.0-2.39","feedback","","","","","","","",""
"null","<img style='width:200px; height:200px; margin-left: 95px; margin-right: 95px;' src='stim/fixation.png'>","null","html-keyboard-response","163","130289","0.0-8.0-0.40","fixation","","","","","","","",""
"214.10000000000582","<img src='stim/b/lsingeltree_tallergrass_clouds.jpg'><img style='width:200px; height:200px; margin-bottom: 0px;' src='stim/fixation.png'><img src='stim/b/orangey_field.jpg'>","49","html-keyboard-response","164","130506","0.0-8.0-1.40","training","cd","0.8","10","c","win:stay","49","1","valid"
"null","<img style='border: 5px solid #808080;' src='stim/b/lsingeltree_tallergrass_clouds.jpg'><img style='width:100px; height:100px; padding-right: 75px; padding-left: 75px; margin-bottom: 50px;' src='stim/win.bmp'><img style='border: 5px solid #ffffff;  padding-left:15px;' src='stim/b/orangey_field.jpg'>","null","html-keyboard-response","165","131523","0.0-8.0-2.40","feedback","","","","","","","",""
"null","<img style='width:200px; height:200px; margin-left: 95px; margin-right: 95px;' src='stim/fixation.png'>","null","html-keyboard-response","166","132539","0.0-8.0-0.41","fixation","","","","","","","",""
"148","<img src='stim/b/water_fall_images.jpg'><img style='width:200px; height:200px; margin-bottom: 0px;' src='stim/fixation.png'><img src='stim/b/water_pines_distantMountains.jpg'>","49","html-keyboard-response","167","132690","0.0-8.0-1.41","training","ef","0.9","10","e","avoid:lose","49","1","valid"
"null","<img style='border: 5px solid #808080;' src='stim/b/water_fall_images.jpg'><img style='width:100px; height:100px; padding-right: 75px; padding-left: 75px; margin-bottom: 50px;' src='stim/keep_money.png'><img style='border: 5px solid #ffffff;  padding-left:15px;' src='stim/b/water_pines_distantMountains.jpg'>","null","html-keyboard-response","168","133706","0.0-8.0-2.41","feedback","","","","","","","",""
"null","<img style='width:200px; height:200px; margin-left: 95px; margin-right: 95px;' src='stim/fixation.png'>","null","html-keyboard-response","169","134718","0.0-8.0-0.42","fixation","","","","","","","",""
"129.30000000001746","<img src='stim/b/water_fall_images.jpg'><img style='width:200px; height:200px; margin-bottom: 0px;' src='stim/fixation.png'><img src='stim/b/water_pines_distantMountains.jpg'>","49","html-keyboard-response","170","134850","0.0-8.0-1.42","training","ef","0.9","10","e","avoid:lose","49","1","valid"
"null","<img style='border: 5px solid #808080;' src='stim/b/water_fall_images.jpg'><img style='width:100px; height:100px; padding-right: 75px; padding-left: 75px; margin-bottom: 50px;' src='stim/keep_money.png'><img style='border: 5px solid #ffffff;  padding-left:15px;' src='stim/b/water_pines_distantMountains.jpg'>","null","html-keyboard-response","171","135866","0.0-8.0-2.42","feedback","","","","","","","",""
"null","<img style='width:200px; height:200px; margin-left: 95px; margin-right: 95px;' src='stim/fixation.png'>","null","html-keyboard-response","172","136869","0.0-8.0-0.43","fixation","","","","","","","",""
"322.1000000000058","<img src='stim/b/waterfall_waterBelow.jpg'><img style='width:200px; height:200px; margin-bottom: 0px;' src='stim/fixation.png'><img src='stim/b/water_pines_snowy_moutain.jpg'>","49","html-keyboard-response","173","137194","0.0-8.0-1.43","training","gh","0.8","10","g","avoid:lose","50","0","valid"
"null","<img style='border: 5px solid #808080;' src='stim/b/waterfall_waterBelow.jpg'><img style='width:100px; height:100px; padding-right: 75px; padding-left: 75px; margin-bottom: 50px;' src='stim/lose.bmp'><img style='border: 5px solid #ffffff;  padding-left:15px;' src='stim/b/water_pines_snowy_moutain.jpg'>","null","html-keyboard-response","174","138210","0.0-8.0-2.43","feedback","","","","","","","",""
"null","<img style='width:200px; height:200px; margin-left: 95px; margin-right: 95px;' src='stim/fixation.png'>","null","html-keyboard-response","175","139227","0.0-8.0-0.44","fixation","","","","","","","",""
"308.5","<img src='stim/b/water_fall_images.jpg'><img style='width:200px; height:200px; margin-bottom: 0px;' src='stim/fixation.png'><img src='stim/b/water_pines_distantMountains.jpg'>","49","html-keyboard-response","176","139538","0.0-8.0-1.44","training","ef","0.9","10","e","avoid:lose","49","1","valid"
"null","<img style='border: 5px solid #808080;' src='stim/b/water_fall_images.jpg'><img style='width:100px; height:100px; padding-right: 75px; padding-left: 75px; margin-bottom: 50px;' src='stim/keep_money.png'><img style='border: 5px solid #ffffff;  padding-left:15px;' src='stim/b/water_pines_distantMountains.jpg'>","null","html-keyboard-response","177","140555","0.0-8.0-2.44","feedback","","","","","","","",""
"null","<img style='width:200px; height:200px; margin-left: 95px; margin-right: 95px;' src='stim/fixation.png'>","null","html-keyboard-response","178","141556","0.0-8.0-0.45","fixation","","","","","","","",""
"274.69999999998253","<img src='stim/b/orangey_field.jpg'><img style='width:200px; height:200px; margin-bottom: 0px;' src='stim/fixation.png'><img src='stim/b/lsingeltree_tallergrass_clouds.jpg'>","49","html-keyboard-response","179","141834","0.0-8.0-1.45","training","cd","0.8","10","c","win:stay","50","0","valid"
"null","<img style='border: 5px solid #808080;' src='stim/b/orangey_field.jpg'><img style='width:100px; height:100px; padding-right: 75px; padding-left: 75px; margin-bottom: 50px;' src='stim/not_winner.png'><img style='border: 5px solid #ffffff;  padding-left:15px;' src='stim/b/lsingeltree_tallergrass_clouds.jpg'>","null","html-keyboard-response","180","142852","0.0-8.0-2.45","feedback","","","","","","","",""
"null","<img style='width:200px; height:200px; margin-left: 95px; margin-right: 95px;' src='stim/fixation.png'>","null","html-keyboard-response","181","143864","0.0-8.0-0.46","fixation","","","","","","","",""
"295.30000000001746","<img src='stim/b/orangey_field.jpg'><img style='width:200px; height:200px; margin-bottom: 0px;' src='stim/fixation.png'><img src='stim/b/lsingeltree_tallergrass_clouds.jpg'>","49","html-keyboard-response","182","144162","0.0-8.0-1.46","training","cd","0.8","10","c","win:stay","50","0","invalid"
"null","<img style='border: 5px solid #808080;' src='stim/b/orangey_field.jpg'><img style='width:100px; height:100px; padding-right: 75px; padding-left: 75px; margin-bottom: 50px;' src='stim/not_winner.png'><img style='border: 5px solid #ffffff;  padding-left:15px;' src='stim/b/lsingeltree_tallergrass_clouds.jpg'>","null","html-keyboard-response","183","145179","0.0-8.0-2.46","feedback","","","","","","","",""
"null","<img style='width:200px; height:200px; margin-left: 95px; margin-right: 95px;' src='stim/fixation.png'>","null","html-keyboard-response","184","146195","0.0-8.0-0.47","fixation","","","","","","","",""
"228.80000000001746","<img src='stim/b/water_pines_distantMountains.jpg'><img style='width:200px; height:200px; margin-bottom: 0px;' src='stim/fixation.png'><img src='stim/b/water_fall_images.jpg'>","49","html-keyboard-response","185","146427","0.0-8.0-1.47","training","ef","0.9","10","e","avoid:lose","50","0","valid"
"null","<img style='border: 5px solid #808080;' src='stim/b/water_pines_distantMountains.jpg'><img style='width:100px; height:100px; padding-right: 75px; padding-left: 75px; margin-bottom: 50px;' src='stim/lose.bmp'><img style='border: 5px solid #ffffff;  padding-left:15px;' src='stim/b/water_fall_images.jpg'>","null","html-keyboard-response","186","147444","0.0-8.0-2.47","feedback","","","","","","","",""
"null","<img style='width:200px; height:200px; margin-left: 95px; margin-right: 95px;' src='stim/fixation.png'>","null","html-keyboard-response","187","148459","0.0-8.0-0.48","fixation","","","","","","","",""
"286.29999999998836","<img src='stim/b/water_pines_snowy_moutain.jpg'><img style='width:200px; height:200px; margin-bottom: 0px;' src='stim/fixation.png'><img src='stim/b/waterfall_waterBelow.jpg'>","49","html-keyboard-response","188","148749","0.0-8.0-1.48","training","gh","0.8","10","g","avoid:lose","49","1","valid"
"null","<img style='border: 5px solid #808080;' src='stim/b/water_pines_snowy_moutain.jpg'><img style='width:100px; height:100px; padding-right: 75px; padding-left: 75px; margin-bottom: 50px;' src='stim/keep_money.png'><img style='border: 5px solid #ffffff;  padding-left:15px;' src='stim/b/waterfall_waterBelow.jpg'>","null","html-keyboard-response","189","149765","0.0-8.0-2.48","feedback","","","","","","","",""
"null","<img style='width:200px; height:200px; margin-left: 95px; margin-right: 95px;' src='stim/fixation.png'>","null","html-keyboard-response","190","150781","0.0-8.0-0.49","fixation","","","","","","","",""
"274.29999999998836","<img src='stim/b/water_pines_snowy_moutain.jpg'><img style='width:200px; height:200px; margin-bottom: 0px;' src='stim/fixation.png'><img src='stim/b/waterfall_waterBelow.jpg'>","49","html-keyboard-response","191","151058","0.0-8.0-1.49","training","gh","0.8","10","g","avoid:lose","49","1","valid"
"null","<img style='border: 5px solid #808080;' src='stim/b/water_pines_snowy_moutain.jpg'><img style='width:100px; height:100px; padding-right: 75px; padding-left: 75px; margin-bottom: 50px;' src='stim/keep_money.png'><img style='border: 5px solid #ffffff;  padding-left:15px;' src='stim/b/waterfall_waterBelow.jpg'>","null","html-keyboard-response","192","152075","0.0-8.0-2.49","feedback","","","","","","","",""
"null","<img style='width:200px; height:200px; margin-left: 95px; margin-right: 95px;' src='stim/fixation.png'>","null","html-keyboard-response","193","153076","0.0-8.0-0.50","fixation","","","","","","","",""
"291","<img src='stim/b/lsingeltree_tallergrass_clouds.jpg'><img style='width:200px; height:200px; margin-bottom: 0px;' src='stim/fixation.png'><img src='stim/b/orangey_field.jpg'>","49","html-keyboard-response","194","153370","0.0-8.0-1.50","training","cd","0.8","10","c","win:stay","49","1","valid"
"null","<img style='border: 5px solid #808080;' src='stim/b/lsingeltree_tallergrass_clouds.jpg'><img style='width:100px; height:100px; padding-right: 75px; padding-left: 75px; margin-bottom: 50px;' src='stim/win.bmp'><img style='border: 5px solid #ffffff;  padding-left:15px;' src='stim/b/orangey_field.jpg'>","null","html-keyboard-response","195","154387","0.0-8.0-2.50","feedback","","","","","","","",""
"null","<img style='width:200px; height:200px; margin-left: 95px; margin-right: 95px;' src='stim/fixation.png'>","null","html-keyboard-response","196","155389","0.0-8.0-0.51","fixation","","","","","","","",""
"330.3999999999942","<img src='stim/b/3d-landscape-background-10.jpg'><img style='width:200px; height:200px; margin-bottom: 0px;' src='stim/fixation.png'><img src='stim/b/2822landscape.jpg'>","49","html-keyboard-response","197","155722","0.0-8.0-1.51","training","ab","0.9","10","a","win:stay","49","1","valid"
"null","<img style='border: 5px solid #808080;' src='stim/b/3d-landscape-background-10.jpg'><img style='width:100px; height:100px; padding-right: 75px; padding-left: 75px; margin-bottom: 50px;' src='stim/win.bmp'><img style='border: 5px solid #ffffff;  padding-left:15px;' src='stim/b/2822landscape.jpg'>","null","html-keyboard-response","198","156738","0.0-8.0-2.51","feedback","","","","","","","",""
"null","<img style='width:200px; height:200px; margin-left: 95px; margin-right: 95px;' src='stim/fixation.png'>","null","html-keyboard-response","199","157754","0.0-8.0-0.52","fixation","","","","","","","",""
"324.80000000001746","<img src='stim/b/orangey_field.jpg'><img style='width:200px; height:200px; margin-bottom: 0px;' src='stim/fixation.png'><img src='stim/b/lsingeltree_tallergrass_clouds.jpg'>","49","html-keyboard-response","200","158082","0.0-8.0-1.52","training","cd","0.8","10","c","win:stay","50","0","invalid"
"null","<img style='border: 5px solid #808080;' src='stim/b/orangey_field.jpg'><img style='width:100px; height:100px; padding-right: 75px; padding-left: 75px; margin-bottom: 50px;' src='stim/not_winner.png'><img style='border: 5px solid #ffffff;  padding-left:15px;' src='stim/b/lsingeltree_tallergrass_clouds.jpg'>","null","html-keyboard-response","201","159100","0.0-8.0-2.52","feedback","","","","","","","",""
"null","<img style='width:200px; height:200px; margin-left: 95px; margin-right: 95px;' src='stim/fixation.png'>","null","html-keyboard-response","202","160102","0.0-8.0-0.53","fixation","","","","","","","",""
"321","<img src='stim/b/water_fall_images.jpg'><img style='width:200px; height:200px; margin-bottom: 0px;' src='stim/fixation.png'><img src='stim/b/water_pines_distantMountains.jpg'>","49","html-keyboard-response","203","160426","0.0-8.0-1.53","training","ef","0.9","10","e","avoid:lose","49","1","invalid"
"null","<img style='border: 5px solid #808080;' src='stim/b/water_fall_images.jpg'><img style='width:100px; height:100px; padding-right: 75px; padding-left: 75px; margin-bottom: 50px;' src='stim/keep_money.png'><img style='border: 5px solid #ffffff;  padding-left:15px;' src='stim/b/water_pines_distantMountains.jpg'>","null","html-keyboard-response","204","161442","0.0-8.0-2.53","feedback","","","","","","","",""
"null","<img style='width:200px; height:200px; margin-left: 95px; margin-right: 95px;' src='stim/fixation.png'>","null","html-keyboard-response","205","162457","0.0-8.0-0.54","fixation","","","","","","","",""
"261.69999999998253","<img src='stim/b/water_pines_snowy_moutain.jpg'><img style='width:200px; height:200px; margin-bottom: 0px;' src='stim/fixation.png'><img src='stim/b/waterfall_waterBelow.jpg'>","49","html-keyboard-response","206","162721","0.0-8.0-1.54","training","gh","0.8","10","g","avoid:lose","49","1","valid"
"null","<img style='border: 5px solid #808080;' src='stim/b/water_pines_snowy_moutain.jpg'><img style='width:100px; height:100px; padding-right: 75px; padding-left: 75px; margin-bottom: 50px;' src='stim/keep_money.png'><img style='border: 5px solid #ffffff;  padding-left:15px;' src='stim/b/waterfall_waterBelow.jpg'>","null","html-keyboard-response","207","163738","0.0-8.0-2.54","feedback","","","","","","","",""
"null","<img style='width:200px; height:200px; margin-left: 95px; margin-right: 95px;' src='stim/fixation.png'>","null","html-keyboard-response","208","164754","0.0-8.0-0.55","fixation","","","","","","","",""
"316.70000000001164","<img src='stim/b/2822landscape.jpg'><img style='width:200px; height:200px; margin-bottom: 0px;' src='stim/fixation.png'><img src='stim/b/3d-landscape-background-10.jpg'>","49","html-keyboard-response","209","165073","0.0-8.0-1.55","training","ab","0.9","10","a","win:stay","50","0","valid"
"null","<img style='border: 5px solid #808080;' src='stim/b/2822landscape.jpg'><img style='width:100px; height:100px; padding-right: 75px; padding-left: 75px; margin-bottom: 50px;' src='stim/not_winner.png'><img style='border: 5px solid #ffffff;  padding-left:15px;' src='stim/b/3d-landscape-background-10.jpg'>","null","html-keyboard-response","210","166091","0.0-8.0-2.55","feedback","","","","","","","",""
"null","<img style='width:200px; height:200px; margin-left: 95px; margin-right: 95px;' src='stim/fixation.png'>","null","html-keyboard-response","211","167104","0.0-8.0-0.56","fixation","","","","","","","",""
"286.4000000000233","<img src='stim/b/lsingeltree_tallergrass_clouds.jpg'><img style='width:200px; height:200px; margin-bottom: 0px;' src='stim/fixation.png'><img src='stim/b/orangey_field.jpg'>","49","html-keyboard-response","212","167393","0.0-8.0-1.56","training","cd","0.8","10","c","win:stay","49","1","valid"
"null","<img style='border: 5px solid #808080;' src='stim/b/lsingeltree_tallergrass_clouds.jpg'><img style='width:100px; height:100px; padding-right: 75px; padding-left: 75px; margin-bottom: 50px;' src='stim/win.bmp'><img style='border: 5px solid #ffffff;  padding-left:15px;' src='stim/b/orangey_field.jpg'>","null","html-keyboard-response","213","168411","0.0-8.0-2.56","feedback","","","","","","","",""
"null","<img style='width:200px; height:200px; margin-left: 95px; margin-right: 95px;' src='stim/fixation.png'>","null","html-keyboard-response","214","169429","0.0-8.0-0.57","fixation","","","","","","","",""
"282.69999999998253","<img src='stim/b/lsingeltree_tallergrass_clouds.jpg'><img style='width:200px; height:200px; margin-bottom: 0px;' src='stim/fixation.png'><img src='stim/b/orangey_field.jpg'>","49","html-keyboard-response","215","169716","0.0-8.0-1.57","training","cd","0.8","10","c","win:stay","49","1","valid"
"null","<img style='border: 5px solid #808080;' src='stim/b/lsingeltree_tallergrass_clouds.jpg'><img style='width:100px; height:100px; padding-right: 75px; padding-left: 75px; margin-bottom: 50px;' src='stim/win.bmp'><img style='border: 5px solid #ffffff;  padding-left:15px;' src='stim/b/orangey_field.jpg'>","null","html-keyboard-response","216","170733","0.0-8.0-2.57","feedback","","","","","","","",""
"null","<img style='width:200px; height:200px; margin-left: 95px; margin-right: 95px;' src='stim/fixation.png'>","null","html-keyboard-response","217","171748","0.0-8.0-0.58","fixation","","","","","","","",""
"299","<img src='stim/b/3d-landscape-background-10.jpg'><img style='width:200px; height:200px; margin-bottom: 0px;' src='stim/fixation.png'><img src='stim/b/2822landscape.jpg'>","49","html-keyboard-response","218","172049","0.0-8.0-1.58","training","ab","0.9","10","a","win:stay","49","1","valid"
"null","<img style='border: 5px solid #808080;' src='stim/b/3d-landscape-background-10.jpg'><img style='width:100px; height:100px; padding-right: 75px; padding-left: 75px; margin-bottom: 50px;' src='stim/win.bmp'><img style='border: 5px solid #ffffff;  padding-left:15px;' src='stim/b/2822landscape.jpg'>","null","html-keyboard-response","219","173068","0.0-8.0-2.58","feedback","","","","","","","",""
"null","<img style='width:200px; height:200px; margin-left: 95px; margin-right: 95px;' src='stim/fixation.png'>","null","html-keyboard-response","220","174083","0.0-8.0-0.59","fixation","","","","","","","",""
"307.5","<img src='stim/b/water_pines_snowy_moutain.jpg'><img style='width:200px; height:200px; margin-bottom: 0px;' src='stim/fixation.png'><img src='stim/b/waterfall_waterBelow.jpg'>","49","html-keyboard-response","221","174393","0.0-8.0-1.59","training","gh","0.8","10","g","avoid:lose","49","1","valid"
"null","<img style='border: 5px solid #808080;' src='stim/b/water_pines_snowy_moutain.jpg'><img style='width:100px; height:100px; padding-right: 75px; padding-left: 75px; margin-bottom: 50px;' src='stim/keep_money.png'><img style='border: 5px solid #ffffff;  padding-left:15px;' src='stim/b/waterfall_waterBelow.jpg'>","null","html-keyboard-response","222","175411","0.0-8.0-2.59","feedback","","","","","","","",""
"null","<img style='width:200px; height:200px; margin-left: 95px; margin-right: 95px;' src='stim/fixation.png'>","null","html-keyboard-response","223","176427","0.0-8.0-0.60","fixation","","","","","","","",""
"339.3999999999942","<img src='stim/b/water_fall_images.jpg'><img style='width:200px; height:200px; margin-bottom: 0px;' src='stim/fixation.png'><img src='stim/b/water_pines_distantMountains.jpg'>","49","html-keyboard-response","224","176770","0.0-8.0-1.60","training","ef","0.9","10","e","avoid:lose","49","1","valid"
"null","<img style='border: 5px solid #808080;' src='stim/b/water_fall_images.jpg'><img style='width:100px; height:100px; padding-right: 75px; padding-left: 75px; margin-bottom: 50px;' src='stim/keep_money.png'><img style='border: 5px solid #ffffff;  padding-left:15px;' src='stim/b/water_pines_distantMountains.jpg'>","null","html-keyboard-response","225","177786","0.0-8.0-2.60","feedback","","","","","","","",""
"null","<img style='width:200px; height:200px; margin-left: 95px; margin-right: 95px;' src='stim/fixation.png'>","null","html-keyboard-response","226","178789","0.0-8.0-0.61","fixation","","","","","","","",""
"345.69999999998253","<img src='stim/b/2822landscape.jpg'><img style='width:200px; height:200px; margin-bottom: 0px;' src='stim/fixation.png'><img src='stim/b/3d-landscape-background-10.jpg'>","49","html-keyboard-response","227","179138","0.0-8.0-1.61","training","ab","0.9","10","a","win:stay","50","0","valid"
"null","<img style='border: 5px solid #808080;' src='stim/b/2822landscape.jpg'><img style='width:100px; height:100px; padding-right: 75px; padding-left: 75px; margin-bottom: 50px;' src='stim/not_winner.png'><img style='border: 5px solid #ffffff;  padding-left:15px;' src='stim/b/3d-landscape-background-10.jpg'>","null","html-keyboard-response","228","180156","0.0-8.0-2.61","feedback","","","","","","","",""
"null","<img style='width:200px; height:200px; margin-left: 95px; margin-right: 95px;' src='stim/fixation.png'>","null","html-keyboard-response","229","181172","0.0-8.0-0.62","fixation","","","","","","","",""
"265.4000000000233","<img src='stim/b/water_pines_distantMountains.jpg'><img style='width:200px; height:200px; margin-bottom: 0px;' src='stim/fixation.png'><img src='stim/b/water_fall_images.jpg'>","49","html-keyboard-response","230","181441","0.0-8.0-1.62","training","ef","0.9","10","e","avoid:lose","50","0","valid"
"null","<img style='border: 5px solid #808080;' src='stim/b/water_pines_distantMountains.jpg'><img style='width:100px; height:100px; padding-right: 75px; padding-left: 75px; margin-bottom: 50px;' src='stim/lose.bmp'><img style='border: 5px solid #ffffff;  padding-left:15px;' src='stim/b/water_fall_images.jpg'>","null","html-keyboard-response","231","182460","0.0-8.0-2.62","feedback","","","","","","","",""
"null","<img style='width:200px; height:200px; margin-left: 95px; margin-right: 95px;' src='stim/fixation.png'>","null","html-keyboard-response","232","183474","0.0-8.0-0.63","fixation","","","","","","","",""
"332.3999999999942","<img src='stim/b/water_fall_images.jpg'><img style='width:200px; height:200px; margin-bottom: 0px;' src='stim/fixation.png'><img src='stim/b/water_pines_distantMountains.jpg'>","49","html-keyboard-response","233","183810","0.0-8.0-1.63","training","ef","0.9","10","e","avoid:lose","49","1","valid"
"null","<img style='border: 5px solid #808080;' src='stim/b/water_fall_images.jpg'><img style='width:100px; height:100px; padding-right: 75px; padding-left: 75px; margin-bottom: 50px;' src='stim/keep_money.png'><img style='border: 5px solid #ffffff;  padding-left:15px;' src='stim/b/water_pines_distantMountains.jpg'>","null","html-keyboard-response","234","184827","0.0-8.0-2.63","feedback","","","","","","","",""
"null","<img style='width:200px; height:200px; margin-left: 95px; margin-right: 95px;' src='stim/fixation.png'>","null","html-keyboard-response","235","185842","0.0-8.0-0.64","fixation","","","","","","","",""
"349.1000000000058","<img src='stim/b/2822landscape.jpg'><img style='width:200px; height:200px; margin-bottom: 0px;' src='stim/fixation.png'><img src='stim/b/3d-landscape-background-10.jpg'>","49","html-keyboard-response","236","186194","0.0-8.0-1.64","training","ab","0.9","10","a","win:stay","50","0","valid"
"null","<img style='border: 5px solid #808080;' src='stim/b/2822landscape.jpg'><img style='width:100px; height:100px; padding-right: 75px; padding-left: 75px; margin-bottom: 50px;' src='stim/not_winner.png'><img style='border: 5px solid #ffffff;  padding-left:15px;' src='stim/b/3d-landscape-background-10.jpg'>","null","html-keyboard-response","237","187213","0.0-8.0-2.64","feedback","","","","","","","",""
"null","<img style='width:200px; height:200px; margin-left: 95px; margin-right: 95px;' src='stim/fixation.png'>","null","html-keyboard-response","238","188229","0.0-8.0-0.65","fixation","","","","","","","",""
"289.8999999999942","<img src='stim/b/water_pines_distantMountains.jpg'><img style='width:200px; height:200px; margin-bottom: 0px;' src='stim/fixation.png'><img src='stim/b/water_fall_images.jpg'>","49","html-keyboard-response","239","188522","0.0-8.0-1.65","training","ef","0.9","10","e","avoid:lose","50","0","valid"
"null","<img style='border: 5px solid #808080;' src='stim/b/water_pines_distantMountains.jpg'><img style='width:100px; height:100px; padding-right: 75px; padding-left: 75px; margin-bottom: 50px;' src='stim/lose.bmp'><img style='border: 5px solid #ffffff;  padding-left:15px;' src='stim/b/water_fall_images.jpg'>","null","html-keyboard-response","240","189539","0.0-8.0-2.65","feedback","","","","","","","",""
"null","<img style='width:200px; height:200px; margin-left: 95px; margin-right: 95px;' src='stim/fixation.png'>","null","html-keyboard-response","241","190541","0.0-8.0-0.66","fixation","","","","","","","",""
"313.70000000001164","<img src='stim/b/water_pines_snowy_moutain.jpg'><img style='width:200px; height:200px; margin-bottom: 0px;' src='stim/fixation.png'><img src='stim/b/waterfall_waterBelow.jpg'>","49","html-keyboard-response","242","190858","0.0-8.0-1.66","training","gh","0.8","10","g","avoid:lose","49","1","invalid"
"null","<img style='border: 5px solid #808080;' src='stim/b/water_pines_snowy_moutain.jpg'><img style='width:100px; height:100px; padding-right: 75px; padding-left: 75px; margin-bottom: 50px;' src='stim/keep_money.png'><img style='border: 5px solid #ffffff;  padding-left:15px;' src='stim/b/waterfall_waterBelow.jpg'>","null","html-keyboard-response","243","191874","0.0-8.0-2.66","feedback","","","","","","","",""
"null","<img style='width:200px; height:200px; margin-left: 95px; margin-right: 95px;' src='stim/fixation.png'>","null","html-keyboard-response","244","192889","0.0-8.0-0.67","fixation","","","","","","","",""
"245.60000000000582","<img src='stim/b/3d-landscape-background-10.jpg'><img style='width:200px; height:200px; margin-bottom: 0px;' src='stim/fixation.png'><img src='stim/b/2822landscape.jpg'>","49","html-keyboard-response","245","193138","0.0-8.0-1.67","training","ab","0.9","10","a","win:stay","49","1","valid"
"null","<img style='border: 5px solid #808080;' src='stim/b/3d-landscape-background-10.jpg'><img style='width:100px; height:100px; padding-right: 75px; padding-left: 75px; margin-bottom: 50px;' src='stim/win.bmp'><img style='border: 5px solid #ffffff;  padding-left:15px;' src='stim/b/2822landscape.jpg'>","null","html-keyboard-response","246","194155","0.0-8.0-2.67","feedback","","","","","","","",""
"null","<img style='width:200px; height:200px; margin-left: 95px; margin-right: 95px;' src='stim/fixation.png'>","null","html-keyboard-response","247","195172","0.0-8.0-0.68","fixation","","","","","","","",""
"275.6000000000058","<img src='stim/b/waterfall_waterBelow.jpg'><img style='width:200px; height:200px; margin-bottom: 0px;' src='stim/fixation.png'><img src='stim/b/water_pines_snowy_moutain.jpg'>","49","html-keyboard-response","248","195450","0.0-8.0-1.68","training","gh","0.8","10","g","avoid:lose","50","0","valid"
"null","<img style='border: 5px solid #808080;' src='stim/b/waterfall_waterBelow.jpg'><img style='width:100px; height:100px; padding-right: 75px; padding-left: 75px; margin-bottom: 50px;' src='stim/lose.bmp'><img style='border: 5px solid #ffffff;  padding-left:15px;' src='stim/b/water_pines_snowy_moutain.jpg'>","null","html-keyboard-response","249","196467","0.0-8.0-2.68","feedback","","","","","","","",""
"null","<img style='width:200px; height:200px; margin-left: 95px; margin-right: 95px;' src='stim/fixation.png'>","null","html-keyboard-response","250","197468","0.0-8.0-0.69","fixation","","","","","","","",""
"258.6000000000058","<img src='stim/b/3d-landscape-background-10.jpg'><img style='width:200px; height:200px; margin-bottom: 0px;' src='stim/fixation.png'><img src='stim/b/2822landscape.jpg'>","49","html-keyboard-response","251","197730","0.0-8.0-1.69","training","ab","0.9","10","a","win:stay","49","1","valid"
"null","<img style='border: 5px solid #808080;' src='stim/b/3d-landscape-background-10.jpg'><img style='width:100px; height:100px; padding-right: 75px; padding-left: 75px; margin-bottom: 50px;' src='stim/win.bmp'><img style='border: 5px solid #ffffff;  padding-left:15px;' src='stim/b/2822landscape.jpg'>","null","html-keyboard-response","252","198746","0.0-8.0-2.69","feedback","","","","","","","",""
"null","<img style='width:200px; height:200px; margin-left: 95px; margin-right: 95px;' src='stim/fixation.png'>","null","html-keyboard-response","253","199762","0.0-8.0-0.70","fixation","","","","","","","",""
"308.8999999999942","<img src='stim/b/water_pines_distantMountains.jpg'><img style='width:200px; height:200px; margin-bottom: 0px;' src='stim/fixation.png'><img src='stim/b/water_fall_images.jpg'>","49","html-keyboard-response","254","200074","0.0-8.0-1.70","training","ef","0.9","10","e","avoid:lose","50","0","valid"
"null","<img style='border: 5px solid #808080;' src='stim/b/water_pines_distantMountains.jpg'><img style='width:100px; height:100px; padding-right: 75px; padding-left: 75px; margin-bottom: 50px;' src='stim/lose.bmp'><img style='border: 5px solid #ffffff;  padding-left:15px;' src='stim/b/water_fall_images.jpg'>","null","html-keyboard-response","255","201092","0.0-8.0-2.70","feedback","","","","","","","",""
"null","<img style='width:200px; height:200px; margin-left: 95px; margin-right: 95px;' src='stim/fixation.png'>","null","html-keyboard-response","256","202093","0.0-8.0-0.71","fixation","","","","","","","",""
"321.69999999998253","<img src='stim/b/orangey_field.jpg'><img style='width:200px; height:200px; margin-bottom: 0px;' src='stim/fixation.png'><img src='stim/b/lsingeltree_tallergrass_clouds.jpg'>","49","html-keyboard-response","257","202418","0.0-8.0-1.71","training","cd","0.8","10","c","win:stay","50","0","valid"
"null","<img style='border: 5px solid #808080;' src='stim/b/orangey_field.jpg'><img style='width:100px; height:100px; padding-right: 75px; padding-left: 75px; margin-bottom: 50px;' src='stim/not_winner.png'><img style='border: 5px solid #ffffff;  padding-left:15px;' src='stim/b/lsingeltree_tallergrass_clouds.jpg'>","null","html-keyboard-response","258","203435","0.0-8.0-2.71","feedback","","","","","","","",""
"null","<img style='width:200px; height:200px; margin-left: 95px; margin-right: 95px;' src='stim/fixation.png'>","null","html-keyboard-response","259","204436","0.0-8.0-0.72","fixation","","","","","","","",""
"315","<img src='stim/b/3d-landscape-background-10.jpg'><img style='width:200px; height:200px; margin-bottom: 0px;' src='stim/fixation.png'><img src='stim/b/2822landscape.jpg'>","49","html-keyboard-response","260","204754","0.0-8.0-1.72","training","ab","0.9","10","a","win:stay","49","1","valid"
"null","<img style='border: 5px solid #808080;' src='stim/b/3d-landscape-background-10.jpg'><img style='width:100px; height:100px; padding-right: 75px; padding-left: 75px; margin-bottom: 50px;' src='stim/win.bmp'><img style='border: 5px solid #ffffff;  padding-left:15px;' src='stim/b/2822landscape.jpg'>","null","html-keyboard-response","261","205772","0.0-8.0-2.72","feedback","","","","","","","",""
"null","<img style='width:200px; height:200px; margin-left: 95px; margin-right: 95px;' src='stim/fixation.png'>","null","html-keyboard-response","262","206788","0.0-8.0-0.73","fixation","","","","","","","",""
"339.19999999998253","<img src='stim/b/water_pines_distantMountains.jpg'><img style='width:200px; height:200px; margin-bottom: 0px;' src='stim/fixation.png'><img src='stim/b/water_fall_images.jpg'>","49","html-keyboard-response","263","207130","0.0-8.0-1.73","training","ef","0.9","10","e","avoid:lose","50","0","valid"
"null","<img style='border: 5px solid #808080;' src='stim/b/water_pines_distantMountains.jpg'><img style='width:100px; height:100px; padding-right: 75px; padding-left: 75px; margin-bottom: 50px;' src='stim/lose.bmp'><img style='border: 5px solid #ffffff;  padding-left:15px;' src='stim/b/water_fall_images.jpg'>","null","html-keyboard-response","264","208148","0.0-8.0-2.73","feedback","","","","","","","",""
"null","<img style='width:200px; height:200px; margin-left: 95px; margin-right: 95px;' src='stim/fixation.png'>","null","html-keyboard-response","265","209165","0.0-8.0-0.74","fixation","","","","","","","",""
"273.80000000001746","<img src='stim/b/water_pines_distantMountains.jpg'><img style='width:200px; height:200px; margin-bottom: 0px;' src='stim/fixation.png'><img src='stim/b/water_fall_images.jpg'>","49","html-keyboard-response","266","209442","0.0-8.0-1.74","training","ef","0.9","10","e","avoid:lose","50","0","valid"
"null","<img style='border: 5px solid #808080;' src='stim/b/water_pines_distantMountains.jpg'><img style='width:100px; height:100px; padding-right: 75px; padding-left: 75px; margin-bottom: 50px;' src='stim/lose.bmp'><img style='border: 5px solid #ffffff;  padding-left:15px;' src='stim/b/water_fall_images.jpg'>","null","html-keyboard-response","267","210460","0.0-8.0-2.74","feedback","","","","","","","",""
"null","<img style='width:200px; height:200px; margin-left: 95px; margin-right: 95px;' src='stim/fixation.png'>","null","html-keyboard-response","268","211474","0.0-8.0-0.75","fixation","","","","","","","",""
"252.5","<img src='stim/b/2822landscape.jpg'><img style='width:200px; height:200px; margin-bottom: 0px;' src='stim/fixation.png'><img src='stim/b/3d-landscape-background-10.jpg'>","49","html-keyboard-response","269","211730","0.0-8.0-1.75","training","ab","0.9","10","a","win:stay","50","0","valid"
"null","<img style='border: 5px solid #808080;' src='stim/b/2822landscape.jpg'><img style='width:100px; height:100px; padding-right: 75px; padding-left: 75px; margin-bottom: 50px;' src='stim/not_winner.png'><img style='border: 5px solid #ffffff;  padding-left:15px;' src='stim/b/3d-landscape-background-10.jpg'>","null","html-keyboard-response","270","212747","0.0-8.0-2.75","feedback","","","","","","","",""
"null","<img style='width:200px; height:200px; margin-left: 95px; margin-right: 95px;' src='stim/fixation.png'>","null","html-keyboard-response","271","213762","0.0-8.0-0.76","fixation","","","","","","","",""
"221","<img src='stim/b/2822landscape.jpg'><img style='width:200px; height:200px; margin-bottom: 0px;' src='stim/fixation.png'><img src='stim/b/3d-landscape-background-10.jpg'>","49","html-keyboard-response","272","213987","0.0-8.0-1.76","training","ab","0.9","10","a","win:stay","50","0","invalid"
"null","<img style='border: 5px solid #808080;' src='stim/b/2822landscape.jpg'><img style='width:100px; height:100px; padding-right: 75px; padding-left: 75px; margin-bottom: 50px;' src='stim/not_winner.png'><img style='border: 5px solid #ffffff;  padding-left:15px;' src='stim/b/3d-landscape-background-10.jpg'>","null","html-keyboard-response","273","215004","0.0-8.0-2.76","feedback","","","","","","","",""
"null","<img style='width:200px; height:200px; margin-left: 95px; margin-right: 95px;' src='stim/fixation.png'>","null","html-keyboard-response","274","216018","0.0-8.0-0.77","fixation","","","","","","","",""
"156.80000000001746","<img src='stim/b/orangey_field.jpg'><img style='width:200px; height:200px; margin-bottom: 0px;' src='stim/fixation.png'><img src='stim/b/lsingeltree_tallergrass_clouds.jpg'>","49","html-keyboard-response","275","216178","0.0-8.0-1.77","training","cd","0.8","10","c","win:stay","50","0","valid"
"null","<img style='border: 5px solid #808080;' src='stim/b/orangey_field.jpg'><img style='width:100px; height:100px; padding-right: 75px; padding-left: 75px; margin-bottom: 50px;' src='stim/not_winner.png'><img style='border: 5px solid #ffffff;  padding-left:15px;' src='stim/b/lsingeltree_tallergrass_clouds.jpg'>","null","html-keyboard-response","276","217197","0.0-8.0-2.77","feedback","","","","","","","",""
"null","<img style='width:200px; height:200px; margin-left: 95px; margin-right: 95px;' src='stim/fixation.png'>","null","html-keyboard-response","277","218200","0.0-8.0-0.78","fixation","","","","","","","",""
"327.29999999998836","<img src='stim/b/water_pines_snowy_moutain.jpg'><img style='width:200px; height:200px; margin-bottom: 0px;' src='stim/fixation.png'><img src='stim/b/waterfall_waterBelow.jpg'>","49","html-keyboard-response","278","218530","0.0-8.0-1.78","training","gh","0.8","10","g","avoid:lose","49","1","valid"
"null","<img style='border: 5px solid #808080;' src='stim/b/water_pines_snowy_moutain.jpg'><img style='width:100px; height:100px; padding-right: 75px; padding-left: 75px; margin-bottom: 50px;' src='stim/keep_money.png'><img style='border: 5px solid #ffffff;  padding-left:15px;' src='stim/b/waterfall_waterBelow.jpg'>","null","html-keyboard-response","279","219546","0.0-8.0-2.78","feedback","","","","","","","",""
"null","<img style='width:200px; height:200px; margin-left: 95px; margin-right: 95px;' src='stim/fixation.png'>","null","html-keyboard-response","280","220561","0.0-8.0-0.79","fixation","","","","","","","",""
"325.80000000001746","<img src='stim/b/orangey_field.jpg'><img style='width:200px; height:200px; margin-bottom: 0px;' src='stim/fixation.png'><img src='stim/b/lsingeltree_tallergrass_clouds.jpg'>","49","html-keyboard-response","281","220890","0.0-8.0-1.79","training","cd","0.8","10","c","win:stay","50","0","valid"
"null","<img style='border: 5px solid #808080;' src='stim/b/orangey_field.jpg'><img style='width:100px; height:100px; padding-right: 75px; padding-left: 75px; margin-bottom: 50px;' src='stim/not_winner.png'><img style='border: 5px solid #ffffff;  padding-left:15px;' src='stim/b/lsingeltree_tallergrass_clouds.jpg'>","null","html-keyboard-response","282","221907","0.0-8.0-2.79","feedback","","","","","","","",""
"4743.899999999994","<p"">Thank you.</p>","49","html-keyboard-response","283","227170","0.0-9.0","","","","","","","","",""
