"rt","stimulus","key_press","trial_type","trial_index","time_elapsed","internal_node_id","test_part","pair","pair_validity","trial_validity","pair_trials_per_block","pair_best_choice","reward_type","correct_response","stim_left","stim_right","stim_best_choice","subjectkey","src_subject_id","interview_date","interview_age","sex","handedness","trial","block","reward_tally","accuracy","stim_feedback","stim_set","reward_set"
"301.61000000043714","<h3 style=""color:#0ed145;"">Welcome to the experiment!</h3><p>Press the spacebar to continue.</p>","32","html-keyboard-response","0","305","0.0-0.0","","","","","","","","","","","","","","","","","","","","","","","",""
"89.51500000057422","<p>In this task you will see two pictures side-by-side on the computer screen.</p><p>In each pair of pictures you see on the screen, one picture will be better than the other.</p><p>You need to figure out which picture in each pair is the better one.</p><p>Press the spacebar to continue.</p>","32","html-keyboard-response","1","397","0.0-1.0","","","","","","","","","","","","","","","","","","","","","","","",""
"104.29500000009284","<p>The better picture in each pair will be more likely to either:</p><p>A) win you some money,</p><p>or</p><p>B) allow you to keep the money you've already earned.</p><p>Press the spacebar to continue.</p>","32","html-keyboard-response","2","502","0.0-2.0","","","","","","","","","","","","","","","","","","","","","","","",""
"86.9250000005195","<p>On those trials where you can A) win money, you will want to select the picture most likely to earn a nickel:</p><img style=""height:100px; width:100px"" src=""stim/winwin.bmp""</img><p>Because if you keep seeing this feedback:</p><img style=""height:125px; width:125px"" src=""stim/not_winner.png""></img><p>you probably aren't selecting the best picture...</p><p>Press the spacebar to continue.</p>","32","html-keyboard-response","3","592","0.0-3.0","","","","","","","","","","","","","","","","","","","","","","","",""
"101.43500000049244","<p>On those trials where you can B) lose money, you will want to select the picture most likely to give this feedback:</p><img style=""height:125px; width:125px"" src=""stim/keep_money.png""></img><p>Because if you keep seeing this:</p><img style=""height:100px; width:100px"" src=""stim/loselose.bmp""></img><p>you probably aren't selecting the best picture...</p><p>Press the spacebar to continue.</p>","32","html-keyboard-response","4","696","0.0-4.0","","","","","","","","","","","","","","","","","","","","","","","",""
"89.69000000070082","<p>Press the 1 key on your keyboard to select the picture on the LEFT.</p><p>Press the 0 key on your keyboard to select the picture on the RIGHT.</p><p>Press the spacebar to continue.</p>","32","html-keyboard-response","5","786","0.0-5.0","","","","","","","","","","","","","","","","","","","","","","","",""
"859.4899999998233","<p>First, you will do some practice trials.</p> <p>Press either response button when you are ready to begin.</p>","48","html-keyboard-response","6","1646","0.0-6.0","","","","","","","","","","","","","","","","","","","","","","","",""
"null","<img style='width:200px; height:200px; margin-left: 95px; margin-right: 95px;' src='stim/fixation.png'>","null","html-keyboard-response","7","2150","0.0-7.0-0.0","","","","","","","","","","","","","","","","","","","","","","","",""
"255.724999999984","<img src='stim/b/Trees_with_flowers.jpg'><img style='width:200px; height:200px; margin-bottom: 0px;' src='stim/fixation.png'><img src='stim/b/wheat_with_farmhouse.jpg'>","48","html-keyboard-response","8","2412","0.0-7.0-1.0","practice","ef","1","valid","6","e","avoid:lose","49","Trees_with_flowers.jpg","wheat_with_farmhouse.jpg","Trees_with_flowers.jpg","GUID","11234","11/11/2020","12","M","left","-1","1","-0.05","0","loselose.bmp","B","money"
"null","<img style='border: 5px solid #ffffff; padding-right:15px;' src='stim/b/Trees_with_flowers.jpg'><img style='width:150px; height:150px; padding-right: 50px; padding-left: 50px; margin-bottom: 25px;' src='stim/loselose.bmp'><img style='border: 5px solid #808080;'src='stim/b/wheat_with_farmhouse.jpg'>","null","html-keyboard-response","9","3418","0.0-7.0-2.0","","","","","","","","","","","","","","","","","","","","","","","",""
"null","<img style='width:200px; height:200px; margin-left: 95px; margin-right: 95px;' src='stim/fixation.png'>","null","html-keyboard-response","10","4424","0.0-7.0-0.1","","","","","","","","","","","","","","","","","","","","","","","",""
"139.46500000020023","<img src='stim/b/closeWater_pines_mountains.jpg'><img style='width:200px; height:200px; margin-bottom: 0px;' src='stim/fixation.png'><img src='stim/b/African_landscape.jpg'>","48","html-keyboard-response","11","4569","0.0-7.0-1.1","practice","ab","1","valid","6","a","win:stay","48","closeWater_pines_mountains.jpg","African_landscape.jpg","African_landscape.jpg","GUID","11234","11/11/2020","12","M","left","-2","1","0","1","winwin.bmp","B","money"
"null","<img style='border: 5px solid #ffffff; padding-right:15px;' src='stim/b/closeWater_pines_mountains.jpg'><img style='width:150px; height:150px; padding-right: 50px; padding-left: 50px; margin-bottom: 25px;' src='stim/winwin.bmp'><img style='border: 5px solid #808080;'src='stim/b/African_landscape.jpg'>","null","html-keyboard-response","12","5578","0.0-7.0-2.1","","","","","","","","","","","","","","","","","","","","","","","",""
"null","<img style='width:200px; height:200px; margin-left: 95px; margin-right: 95px;' src='stim/fixation.png'>","null","html-keyboard-response","13","6585","0.0-7.0-0.2","","","","","","","","","","","","","","","","","","","","","","","",""
"110.80500000025495","<img src='stim/b/closeWater_pines_mountains.jpg'><img style='width:200px; height:200px; margin-bottom: 0px;' src='stim/fixation.png'><img src='stim/b/African_landscape.jpg'>","48","html-keyboard-response","14","6702","0.0-7.0-1.2","practice","ab","1","valid","6","a","win:stay","48","closeWater_pines_mountains.jpg","African_landscape.jpg","African_landscape.jpg","GUID","11234","11/11/2020","12","M","left","-3","1","0.05","1","winwin.bmp","B","money"
"null","<img style='border: 5px solid #ffffff; padding-right:15px;' src='stim/b/closeWater_pines_mountains.jpg'><img style='width:150px; height:150px; padding-right: 50px; padding-left: 50px; margin-bottom: 25px;' src='stim/winwin.bmp'><img style='border: 5px solid #808080;'src='stim/b/African_landscape.jpg'>","null","html-keyboard-response","15","7706","0.0-7.0-2.2","","","","","","","","","","","","","","","","","","","","","","","",""
"null","<img style='width:200px; height:200px; margin-left: 95px; margin-right: 95px;' src='stim/fixation.png'>","null","html-keyboard-response","16","8714","0.0-7.0-0.3","","","","","","","","","","","","","","","","","","","","","","","",""
"416.1599999997634","<img src='stim/b/Trees_with_flowers.jpg'><img style='width:200px; height:200px; margin-bottom: 0px;' src='stim/fixation.png'><img src='stim/b/wheat_with_farmhouse.jpg'>","48","html-keyboard-response","17","9133","0.0-7.0-1.3","practice","ef","1","valid","6","e","avoid:lose","49","Trees_with_flowers.jpg","wheat_with_farmhouse.jpg","Trees_with_flowers.jpg","GUID","11234","11/11/2020","12","M","left","-4","1","0","0","loselose.bmp","B","money"
"null","<img style='border: 5px solid #ffffff; padding-right:15px;' src='stim/b/Trees_with_flowers.jpg'><img style='width:150px; height:150px; padding-right: 50px; padding-left: 50px; margin-bottom: 25px;' src='stim/loselose.bmp'><img style='border: 5px solid #808080;'src='stim/b/wheat_with_farmhouse.jpg'>","null","html-keyboard-response","18","10143","0.0-7.0-2.3","","","","","","","","","","","","","","","","","","","","","","","",""
"null","<img style='width:200px; height:200px; margin-left: 95px; margin-right: 95px;' src='stim/fixation.png'>","null","html-keyboard-response","19","11148","0.0-7.0-0.4","","","","","","","","","","","","","","","","","","","","","","","",""
"246.6100000001461","<img src='stim/b/wheat_with_farmhouse.jpg'><img style='width:200px; height:200px; margin-bottom: 0px;' src='stim/fixation.png'><img src='stim/b/Trees_with_flowers.jpg'>","48","html-keyboard-response","20","11400","0.0-7.0-1.4","practice","ef","1","valid","6","e","avoid:lose","48","wheat_with_farmhouse.jpg","Trees_with_flowers.jpg","Trees_with_flowers.jpg","GUID","11234","11/11/2020","12","M","left","-5","1","0","1","keep_money.png","B","money"
"null","<img style='border: 5px solid #ffffff; padding-right:15px;' src='stim/b/wheat_with_farmhouse.jpg'><img style='width:150px; height:150px; padding-right: 50px; padding-left: 50px; margin-bottom: 25px;' src='stim/keep_money.png'><img style='border: 5px solid #808080;'src='stim/b/Trees_with_flowers.jpg'>","null","html-keyboard-response","21","12404","0.0-7.0-2.4","","","","","","","","","","","","","","","","","","","","","","","",""
"null","<img style='width:200px; height:200px; margin-left: 95px; margin-right: 95px;' src='stim/fixation.png'>","null","html-keyboard-response","22","13411","0.0-7.0-0.5","","","","","","","","","","","","","","","","","","","","","","","",""
"188.49000000045635","<img src='stim/b/African_landscape.jpg'><img style='width:200px; height:200px; margin-bottom: 0px;' src='stim/fixation.png'><img src='stim/b/closeWater_pines_mountains.jpg'>","48","html-keyboard-response","23","13604","0.0-7.0-1.5","practice","ab","1","valid","6","a","win:stay","49","African_landscape.jpg","closeWater_pines_mountains.jpg","African_landscape.jpg","GUID","11234","11/11/2020","12","M","left","-6","1","0","0","not_winner.png","B","money"
"null","<img style='border: 5px solid #ffffff; padding-right:15px;' src='stim/b/African_landscape.jpg'><img style='width:150px; height:150px; padding-right: 50px; padding-left: 50px; margin-bottom: 25px;' src='stim/not_winner.png'><img style='border: 5px solid #808080;'src='stim/b/closeWater_pines_mountains.jpg'>","null","html-keyboard-response","24","14613","0.0-7.0-2.5","","","","","","","","","","","","","","","","","","","","","","","",""
"null","<img style='width:200px; height:200px; margin-left: 95px; margin-right: 95px;' src='stim/fixation.png'>","null","html-keyboard-response","25","15618","0.0-7.0-0.6","","","","","","","","","","","","","","","","","","","","","","","",""
"347.45999999995547","<img src='stim/b/wheat_with_farmhouse.jpg'><img style='width:200px; height:200px; margin-bottom: 0px;' src='stim/fixation.png'><img src='stim/b/Trees_with_flowers.jpg'>","48","html-keyboard-response","26","15971","0.0-7.0-1.6","practice","ef","1","valid","6","e","avoid:lose","48","wheat_with_farmhouse.jpg","Trees_with_flowers.jpg","Trees_with_flowers.jpg","GUID","11234","11/11/2020","12","M","left","-7","1","0","1","keep_money.png","B","money"
"null","<img style='border: 5px solid #ffffff; padding-right:15px;' src='stim/b/wheat_with_farmhouse.jpg'><img style='width:150px; height:150px; padding-right: 50px; padding-left: 50px; margin-bottom: 25px;' src='stim/keep_money.png'><img style='border: 5px solid #808080;'src='stim/b/Trees_with_flowers.jpg'>","null","html-keyboard-response","27","16975","0.0-7.0-2.6","","","","","","","","","","","","","","","","","","","","","","","",""
"null","<img style='width:200px; height:200px; margin-left: 95px; margin-right: 95px;' src='stim/fixation.png'>","null","html-keyboard-response","28","17979","0.0-7.0-0.7","","","","","","","","","","","","","","","","","","","","","","","",""
"147.32499999990978","<img src='stim/b/African_landscape.jpg'><img style='width:200px; height:200px; margin-bottom: 0px;' src='stim/fixation.png'><img src='stim/b/closeWater_pines_mountains.jpg'>","48","html-keyboard-response","29","18131","0.0-7.0-1.7","practice","ab","1","valid","6","a","win:stay","49","African_landscape.jpg","closeWater_pines_mountains.jpg","African_landscape.jpg","GUID","11234","11/11/2020","12","M","left","-8","1","0","0","not_winner.png","B","money"
"null","<img style='border: 5px solid #ffffff; padding-right:15px;' src='stim/b/African_landscape.jpg'><img style='width:150px; height:150px; padding-right: 50px; padding-left: 50px; margin-bottom: 25px;' src='stim/not_winner.png'><img style='border: 5px solid #808080;'src='stim/b/closeWater_pines_mountains.jpg'>","null","html-keyboard-response","30","19140","0.0-7.0-2.7","","","","","","","","","","","","","","","","","","","","","","","",""
"null","<img style='width:200px; height:200px; margin-left: 95px; margin-right: 95px;' src='stim/fixation.png'>","null","html-keyboard-response","31","20145","0.0-7.0-0.8","","","","","","","","","","","","","","","","","","","","","","","",""
"381.8700000001627","<img src='stim/b/African_landscape.jpg'><img style='width:200px; height:200px; margin-bottom: 0px;' src='stim/fixation.png'><img src='stim/b/closeWater_pines_mountains.jpg'>","48","html-keyboard-response","32","20533","0.0-7.0-1.8","practice","ab","1","valid","6","a","win:stay","49","African_landscape.jpg","closeWater_pines_mountains.jpg","African_landscape.jpg","GUID","11234","11/11/2020","12","M","left","-9","1","0","0","not_winner.png","B","money"
"null","<img style='border: 5px solid #ffffff; padding-right:15px;' src='stim/b/African_landscape.jpg'><img style='width:150px; height:150px; padding-right: 50px; padding-left: 50px; margin-bottom: 25px;' src='stim/not_winner.png'><img style='border: 5px solid #808080;'src='stim/b/closeWater_pines_mountains.jpg'>","null","html-keyboard-response","33","21537","0.0-7.0-2.8","","","","","","","","","","","","","","","","","","","","","","","",""
"null","<img style='width:200px; height:200px; margin-left: 95px; margin-right: 95px;' src='stim/fixation.png'>","null","html-keyboard-response","34","22541","0.0-7.0-0.9","","","","","","","","","","","","","","","","","","","","","","","",""
"298.47500000050786","<img src='stim/b/wheat_with_farmhouse.jpg'><img style='width:200px; height:200px; margin-bottom: 0px;' src='stim/fixation.png'><img src='stim/b/Trees_with_flowers.jpg'>","48","html-keyboard-response","35","22847","0.0-7.0-1.9","practice","ef","1","valid","6","e","avoid:lose","48","wheat_with_farmhouse.jpg","Trees_with_flowers.jpg","Trees_with_flowers.jpg","GUID","11234","11/11/2020","12","M","left","-10","1","0","1","keep_money.png","B","money"
"null","<img style='border: 5px solid #ffffff; padding-right:15px;' src='stim/b/wheat_with_farmhouse.jpg'><img style='width:150px; height:150px; padding-right: 50px; padding-left: 50px; margin-bottom: 25px;' src='stim/keep_money.png'><img style='border: 5px solid #808080;'src='stim/b/Trees_with_flowers.jpg'>","null","html-keyboard-response","36","23853","0.0-7.0-2.9","","","","","","","","","","","","","","","","","","","","","","","",""
"null","<img style='width:200px; height:200px; margin-left: 95px; margin-right: 95px;' src='stim/fixation.png'>","null","html-keyboard-response","37","24860","0.0-7.0-0.10","","","","","","","","","","","","","","","","","","","","","","","",""
"758.2500000007713","<img src='stim/b/closeWater_pines_mountains.jpg'><img style='width:200px; height:200px; margin-bottom: 0px;' src='stim/fixation.png'><img src='stim/b/African_landscape.jpg'>","48","html-keyboard-response","38","25624","0.0-7.0-1.10","practice","ab","1","valid","6","a","win:stay","48","closeWater_pines_mountains.jpg","African_landscape.jpg","African_landscape.jpg","GUID","11234","11/11/2020","12","M","left","-11","1","0.05","1","winwin.bmp","B","money"
"null","<img style='border: 5px solid #ffffff; padding-right:15px;' src='stim/b/closeWater_pines_mountains.jpg'><img style='width:150px; height:150px; padding-right: 50px; padding-left: 50px; margin-bottom: 25px;' src='stim/winwin.bmp'><img style='border: 5px solid #808080;'src='stim/b/African_landscape.jpg'>","null","html-keyboard-response","39","26632","0.0-7.0-2.10","","","","","","","","","","","","","","","","","","","","","","","",""
"null","<img style='width:200px; height:200px; margin-left: 95px; margin-right: 95px;' src='stim/fixation.png'>","null","html-keyboard-response","40","27639","0.0-7.0-0.11","","","","","","","","","","","","","","","","","","","","","","","",""
"518.8099999995757","<img src='stim/b/Trees_with_flowers.jpg'><img style='width:200px; height:200px; margin-bottom: 0px;' src='stim/fixation.png'><img src='stim/b/wheat_with_farmhouse.jpg'>","48","html-keyboard-response","41","28163","0.0-7.0-1.11","practice","ef","1","valid","6","e","avoid:lose","49","Trees_with_flowers.jpg","wheat_with_farmhouse.jpg","Trees_with_flowers.jpg","GUID","11234","11/11/2020","12","M","left","-12","1","0","0","loselose.bmp","B","money"
"null","<img style='border: 5px solid #ffffff; padding-right:15px;' src='stim/b/Trees_with_flowers.jpg'><img style='width:150px; height:150px; padding-right: 50px; padding-left: 50px; margin-bottom: 25px;' src='stim/loselose.bmp'><img style='border: 5px solid #808080;'src='stim/b/wheat_with_farmhouse.jpg'>","null","html-keyboard-response","42","29168","0.0-7.0-2.11","","","","","","","","","","","","","","","","","","","","","","","",""
"979.2250000000422","<p>Great!</p> <p>Press the spacebar to continue.</p>","32","html-keyboard-response","43","30652","0.0-8.0","","","","","","","","","","","","","","","","","","","","","","","",""
"363.3300000001327","<p>Now you will see some more pictures.</p><p>Do as before by pressing the 1 to choose the picture on the left, and pressing the 0 to choose the picture on the right.</p><p>Press the spacebar to continue.</p>","32","html-keyboard-response","44","31017","0.0-9.0","","","","","","","","","","","","","","","","","","","","","","","",""
"163.8149999998859","<h3 style=""color:red;"">For the picture pairs where you can win money:</h3><p>You will not win every time you choose the ""best"" picture;</p><p>However, one picture gets rewarded much more often than the other picture.</p><h3 style=""color:red;"">For the picture pairs where the best you can do is keep your money:</h3><p>You will not be able to keep your money every time you choose the ""best"" picture;</p><p>However, one picture allows you to keep your money much more often than the other picture.</p><p>Press the spacebar to continue.</p>","32","html-keyboard-response","45","31182","0.0-10.0","","","","","","","","","","","","","","","","","","","","","","","",""
"144.7199999993245","<p>There is no ABSOLUTE right answer for any pair of pictures, but some pictures have a higher chance of either winning you some money or preventing you from losing money.</p><p>Try to pick the picture that you think is best.<p><p>Once you decide which picture in a pair of pictures is better, stick with it for the rest of the experiment (unless you determine that you were initially wrong about the selection).</p><p>Press the spacebar when you are ready to begin.</p>","32","html-keyboard-response","46","31328","0.0-11.0","","","","","","","","","","","","","","","","","","","","","","","",""
"143.58499999980268","<p>Great!</p> <p>Press the spacebar to continue.</p>","32","html-keyboard-response","47","31473","0.0-12.0","","","","","","","","","","","","","","","","","","","","","","","",""
"137.7650000003996","<p>It's time to test what you've learned!</p><p>During this block of trials you will not be shown whether the object you choose wins money.</p><p>Press the spacebar to continue.</p>","32","html-keyboard-response","48","31612","0.0-13.0","","","","","","","","","","","","","","","","","","","","","","","",""
"195.41500000013912","<p>If you see new combinations of objects in this next block,</p><p>please choose the object that ""feels"" like more of a winner based on what you have learned during the previous blocks.</p><p>If you're not sure which object to pick, just go with your gut instinct!</p><p>Press the spacebar to continue.</p>","32","html-keyboard-response","49","31809","0.0-14.0","","","","","","","","","","","","","","","","","","","","","","","",""
"323.2850000003964","<p>Press the spacebar when you are ready to begin.</p>","32","html-keyboard-response","50","32133","0.0-15.0","","","","","","","","","","","","","","","","","","","","","","","",""
"null","<p>Data saving...</p><div class=""sk-cube-grid""><div class=""sk-cube sk-cube1""></div><div class=""sk-cube sk-cube2""></div><div class=""sk-cube sk-cube3""></div><div class=""sk-cube sk-cube4""></div><div class=""sk-cube sk-cube5""></div><div class=""sk-cube sk-cube6""></div><div class=""sk-cube sk-cube7""></div><div class=""sk-cube sk-cube8""></div><div class=""sk-cube sk-cube9""></div></div><p>Do not close this window until the text dissapears.</p>","null","html-keyboard-response","51","37134","0.0-16.0","","","","","","","","","","","","","","","","","","","","","","","",""
