"rt","stimulus","key_press","trial_type","trial_index","time_elapsed","internal_node_id","test_part","pair","good_stim","correct_response"
"696.6000000000004","<h3 style=""color:#0ed145;"">Welcome to the experiment!</h3><p>Press the spacebar continue.</p>","32","html-keyboard-response","0","700","0.0-0.0","","","",""
"445","<p>In this task you will see two pictures side-by-side on the computer screen.</p><p>In each pair of pictures you see on the screen, one picture will be better than the other.</p><p>You need to figure out which picture in each pair is the better one.</p><p>Press the spacebar continue.</p>","32","html-keyboard-response","1","1148","0.0-1.0","","","",""
"397.60000000000036","<p>The better picture in each pair will be more likely to either</p><p>A) win you some money,</p><p>or</p><p>B) allow you to keep the money you've already earned.</p><p>Press the spacebar continue.</p>","32","html-keyboard-response","2","1547","0.0-2.0","","","",""
"389","<p>On those trials where you can A) win money, you will want to select the picture most likely to earn a nickel:</p><img style=""height:100px; width:100px"" src=""stim/win.bmp""</img><p>Because if you keep seeing this feedback:</p><img style=""height:125px; width:125px"" src=""stim/not_winner.png""></img><p>you probably aren't selecting the best picture...</p><p>Press the spacebar continue.</p>","32","html-keyboard-response","3","1940","0.0-3.0","","","",""
"364.59999999999945","<p>On those trials where you can B) lose money, you will want to select the picture most likely to give this feedback:</p><img style=""height:125px; width:125px"" src=""stim/keep_money.png""></img><p>Because if you keep seeing this:</p><img style=""height:100px; width:100px"" src=""stim/lose.bmp""></img><p>you probably aren't selecting the best picture...</p>","32","html-keyboard-response","4","2308","0.0-4.0","","","",""
"357.40000000000054","<p>Press the 1 key on your keyboard to select the picture on the LEFT.</p><p>Press the 2 key on your keyboard to select the picture on the RIGHT.</p><p>Press the spacebar continue.</p>","32","html-keyboard-response","5","2668","0.0-5.0","","","",""
"1453.8999999999996","<p>First you will do some practice trials.</p> <p>Press either button when you are ready to begin.</p>","49","html-keyboard-response","6","4124","0.0-6.0","","","",""
"1724.7999999999992","<p>Great!</p> <p>Press the spacebar continue.</p>","32","html-keyboard-response","7","5852","0.0-7.0","","","",""
"1253.800000000001","<p>It's time to test what you've learned!</p><p>During this block of trials you will not be shown whether the object you choose wins money.</p><p>Press the spacebar continue.</p>","32","html-keyboard-response","8","7108","0.0-8.0","","","",""
"709.3999999999996","<p>If you see new combinations of objects in this next block,</p><p>please choose the object that ""feels"" like more of a winner based on what you have learned during the previous blocks.</p><p>If you're not sure which object to pick, just go with your gut instinct!</p><p>Press the spacebar continue.</p>","32","html-keyboard-response","9","7820","0.0-9.0","","","",""
"989.6999999999989","<p>Press either button when you are ready to begin.</p>","49","html-keyboard-response","10","8811","0.0-10.0","","","",""
"null","<img style='width:200px; height:200px; margin-left: 95px; margin-right: 95px;' src='stim/fixation.png'>","null","html-keyboard-response","11","9327","0.0-11.0-0.0","fixation","","",""
"530.3000000000011","<img src='stim/a/Field9.bmp'><img style='width:200px; height:200px; margin-bottom: 0px;' src='stim/fixation.png'><img src='stim/a/Field11.bmp'>","49","html-keyboard-response","12","9860","0.0-11.0-1.0","test","de","e","50"
"null","<img style='width:200px; height:200px; margin-left: 95px; margin-right: 95px;' src='stim/fixation.png'>","null","html-keyboard-response","13","10376","0.0-11.0-0.1","fixation","","",""
"945.2000000000007","<img src='stim/a/Field14.bmp'><img style='width:200px; height:200px; margin-bottom: 0px;' src='stim/fixation.png'><img src='stim/a/Field9.bmp'>","49","html-keyboard-response","14","11324","0.0-11.0-1.1","test","ce","c","49"
"null","<img style='width:200px; height:200px; margin-left: 95px; margin-right: 95px;' src='stim/fixation.png'>","null","html-keyboard-response","15","11840","0.0-11.0-0.2","fixation","","",""
"649.6000000000022","<img src='stim/a/Field3.bmp'><img style='width:200px; height:200px; margin-bottom: 0px;' src='stim/fixation.png'><img src='stim/a/Field15.bmp'>","49","html-keyboard-response","16","12492","0.0-11.0-1.2","test","ag","a","49"
"null","<img style='width:200px; height:200px; margin-left: 95px; margin-right: 95px;' src='stim/fixation.png'>","null","html-keyboard-response","17","13007","0.0-11.0-0.3","fixation","","",""
"626.5999999999985","<img src='stim/a/Field9.bmp'><img style='width:200px; height:200px; margin-bottom: 0px;' src='stim/fixation.png'><img src='stim/a/Field14.bmp'>","49","html-keyboard-response","18","13637","0.0-11.0-1.3","test","ce","c","50"
"null","<img style='width:200px; height:200px; margin-left: 95px; margin-right: 95px;' src='stim/fixation.png'>","null","html-keyboard-response","19","14153","0.0-11.0-0.4","fixation","","",""
"439.6000000000022","<img src='stim/a/Field5.bmp'><img style='width:200px; height:200px; margin-bottom: 0px;' src='stim/fixation.png'><img src='stim/a/Field9.bmp'>","49","html-keyboard-response","20","14595","0.0-11.0-1.4","test","be","e","49"
"null","<img style='width:200px; height:200px; margin-left: 95px; margin-right: 95px;' src='stim/fixation.png'>","null","html-keyboard-response","21","15111","0.0-11.0-0.5","fixation","","",""
"384.90000000000145","<img src='stim/a/Field16.bmp'><img style='width:200px; height:200px; margin-bottom: 0px;' src='stim/fixation.png'><img src='stim/a/Field14.bmp'>","49","html-keyboard-response","22","15499","0.0-11.0-1.5","test","ch","c","50"
"null","<img style='width:200px; height:200px; margin-left: 95px; margin-right: 95px;' src='stim/fixation.png'>","null","html-keyboard-response","23","16015","0.0-11.0-0.6","fixation","","",""
"322","<img src='stim/a/Field12.bmp'><img style='width:200px; height:200px; margin-bottom: 0px;' src='stim/fixation.png'><img src='stim/a/Field9.bmp'>","49","html-keyboard-response","24","16339","0.0-11.0-1.6","test","ef","e","50"
"null","<img style='width:200px; height:200px; margin-left: 95px; margin-right: 95px;' src='stim/fixation.png'>","null","html-keyboard-response","25","16855","0.0-11.0-0.7","fixation","","",""
"329.2000000000007","<img src='stim/a/Field11.bmp'><img style='width:200px; height:200px; margin-bottom: 0px;' src='stim/fixation.png'><img src='stim/a/Field9.bmp'>","49","html-keyboard-response","26","17187","0.0-11.0-1.7","test","de","e","49"
"null","<img style='width:200px; height:200px; margin-left: 95px; margin-right: 95px;' src='stim/fixation.png'>","null","html-keyboard-response","27","17702","0.0-11.0-0.8","fixation","","",""
"314.40000000000145","<img src='stim/a/Field15.bmp'><img style='width:200px; height:200px; margin-bottom: 0px;' src='stim/fixation.png'><img src='stim/a/Field3.bmp'>","49","html-keyboard-response","28","18019","0.0-11.0-1.8","test","ag","a","50"
"null","<img style='width:200px; height:200px; margin-left: 95px; margin-right: 95px;' src='stim/fixation.png'>","null","html-keyboard-response","29","18536","0.0-11.0-0.9","fixation","","",""
"297.40000000000145","<img src='stim/a/Field15.bmp'><img style='width:200px; height:200px; margin-bottom: 0px;' src='stim/fixation.png'><img src='stim/a/Field5.bmp'>","49","html-keyboard-response","30","18835","0.0-11.0-1.9","test","bg","g","50"
"null","<img style='width:200px; height:200px; margin-left: 95px; margin-right: 95px;' src='stim/fixation.png'>","null","html-keyboard-response","31","19351","0.0-11.0-0.10","fixation","","",""
"257.2999999999993","<img src='stim/a/Field11.bmp'><img style='width:200px; height:200px; margin-bottom: 0px;' src='stim/fixation.png'><img src='stim/a/Field14.bmp'>","49","html-keyboard-response","32","19611","0.0-11.0-1.10","test","cd","c","50"
"null","<img style='width:200px; height:200px; margin-left: 95px; margin-right: 95px;' src='stim/fixation.png'>","null","html-keyboard-response","33","20128","0.0-11.0-0.11","fixation","","",""
"265.2999999999993","<img src='stim/a/Field14.bmp'><img style='width:200px; height:200px; margin-bottom: 0px;' src='stim/fixation.png'><img src='stim/a/Field15.bmp'>","49","html-keyboard-response","34","20396","0.0-11.0-1.11","test","cg","c","49"
"null","<img style='width:200px; height:200px; margin-left: 95px; margin-right: 95px;' src='stim/fixation.png'>","null","html-keyboard-response","35","20912","0.0-11.0-0.12","fixation","","",""
"241.79999999999927","<img src='stim/a/Field12.bmp'><img style='width:200px; height:200px; margin-bottom: 0px;' src='stim/fixation.png'><img src='stim/a/Field3.bmp'>","49","html-keyboard-response","36","21156","0.0-11.0-1.12","test","af","a","50"
"null","<img style='width:200px; height:200px; margin-left: 95px; margin-right: 95px;' src='stim/fixation.png'>","null","html-keyboard-response","37","21672","0.0-11.0-0.13","fixation","","",""
"289.2999999999993","<img src='stim/a/Field15.bmp'><img style='width:200px; height:200px; margin-bottom: 0px;' src='stim/fixation.png'><img src='stim/a/Field14.bmp'>","49","html-keyboard-response","38","21964","0.0-11.0-1.13","test","cg","c","50"
"null","<img style='width:200px; height:200px; margin-left: 95px; margin-right: 95px;' src='stim/fixation.png'>","null","html-keyboard-response","39","22481","0.0-11.0-0.14","fixation","","",""
"224.09999999999854","<img src='stim/a/Field5.bmp'><img style='width:200px; height:200px; margin-bottom: 0px;' src='stim/fixation.png'><img src='stim/a/Field15.bmp'>","49","html-keyboard-response","40","22708","0.0-11.0-1.14","test","bg","g","49"
"null","<img style='width:200px; height:200px; margin-left: 95px; margin-right: 95px;' src='stim/fixation.png'>","null","html-keyboard-response","41","23225","0.0-11.0-0.15","fixation","","",""
"199.90000000000145","<img src='stim/a/Field3.bmp'><img style='width:200px; height:200px; margin-bottom: 0px;' src='stim/fixation.png'><img src='stim/a/Field5.bmp'>","49","html-keyboard-response","42","23428","0.0-11.0-1.15","test","ab","a","49"
"null","<img style='width:200px; height:200px; margin-left: 95px; margin-right: 95px;' src='stim/fixation.png'>","null","html-keyboard-response","43","23943","0.0-11.0-0.16","fixation","","",""
"169.90000000000145","<img src='stim/a/Field16.bmp'><img style='width:200px; height:200px; margin-bottom: 0px;' src='stim/fixation.png'><img src='stim/a/Field3.bmp'>","49","html-keyboard-response","44","24116","0.0-11.0-1.16","test","ah","a","50"
"null","<img style='width:200px; height:200px; margin-left: 95px; margin-right: 95px;' src='stim/fixation.png'>","null","html-keyboard-response","45","24632","0.0-11.0-0.17","fixation","","",""
"200.70000000000073","<img src='stim/a/Field14.bmp'><img style='width:200px; height:200px; margin-bottom: 0px;' src='stim/fixation.png'><img src='stim/a/Field12.bmp'>","49","html-keyboard-response","46","24835","0.0-11.0-1.17","test","cf","c","49"
"null","<img style='width:200px; height:200px; margin-left: 95px; margin-right: 95px;' src='stim/fixation.png'>","null","html-keyboard-response","47","25350","0.0-11.0-0.18","fixation","","",""
"180.40000000000145","<img src='stim/a/Field3.bmp'><img style='width:200px; height:200px; margin-bottom: 0px;' src='stim/fixation.png'><img src='stim/a/Field12.bmp'>","49","html-keyboard-response","48","25533","0.0-11.0-1.18","test","af","a","49"
"null","<img style='width:200px; height:200px; margin-left: 95px; margin-right: 95px;' src='stim/fixation.png'>","null","html-keyboard-response","49","26049","0.0-11.0-0.19","fixation","","",""
"216","<img src='stim/a/Field16.bmp'><img style='width:200px; height:200px; margin-bottom: 0px;' src='stim/fixation.png'><img src='stim/a/Field15.bmp'>","49","html-keyboard-response","50","26268","0.0-11.0-1.19","test","gh","g","50"
"null","<img style='width:200px; height:200px; margin-left: 95px; margin-right: 95px;' src='stim/fixation.png'>","null","html-keyboard-response","51","26783","0.0-11.0-0.20","fixation","","",""
"209.59999999999854","<img src='stim/a/Field9.bmp'><img style='width:200px; height:200px; margin-bottom: 0px;' src='stim/fixation.png'><img src='stim/a/Field12.bmp'>","49","html-keyboard-response","52","26996","0.0-11.0-1.20","test","ef","e","49"
"null","<img style='width:200px; height:200px; margin-left: 95px; margin-right: 95px;' src='stim/fixation.png'>","null","html-keyboard-response","53","27512","0.0-11.0-0.21","fixation","","",""
"120.69999999999709","<img src='stim/a/Field5.bmp'><img style='width:200px; height:200px; margin-bottom: 0px;' src='stim/fixation.png'><img src='stim/a/Field3.bmp'>","49","html-keyboard-response","54","27636","0.0-11.0-1.21","test","ab","a","50"
"null","<img style='width:200px; height:200px; margin-left: 95px; margin-right: 95px;' src='stim/fixation.png'>","null","html-keyboard-response","55","28152","0.0-11.0-0.22","fixation","","",""
"161.60000000000582","<img src='stim/a/Field12.bmp'><img style='width:200px; height:200px; margin-bottom: 0px;' src='stim/fixation.png'><img src='stim/a/Field14.bmp'>","49","html-keyboard-response","56","28315","0.0-11.0-1.22","test","cf","c","50"
"null","<img style='width:200px; height:200px; margin-left: 95px; margin-right: 95px;' src='stim/fixation.png'>","null","html-keyboard-response","57","28832","0.0-11.0-0.23","fixation","","",""
"152.6999999999971","<img src='stim/a/Field3.bmp'><img style='width:200px; height:200px; margin-bottom: 0px;' src='stim/fixation.png'><img src='stim/a/Field16.bmp'>","49","html-keyboard-response","58","28987","0.0-11.0-1.23","test","ah","a","49"
"null","<img style='width:200px; height:200px; margin-left: 95px; margin-right: 95px;' src='stim/fixation.png'>","null","html-keyboard-response","59","29503","0.0-11.0-0.24","fixation","","",""
"169.09999999999854","<img src='stim/a/Field9.bmp'><img style='width:200px; height:200px; margin-bottom: 0px;' src='stim/fixation.png'><img src='stim/a/Field5.bmp'>","49","html-keyboard-response","60","29677","0.0-11.0-1.24","test","be","e","50"
"null","<img style='width:200px; height:200px; margin-left: 95px; margin-right: 95px;' src='stim/fixation.png'>","null","html-keyboard-response","61","30192","0.0-11.0-0.25","fixation","","",""
"16.099999999998545","<img src='stim/a/Field11.bmp'><img style='width:200px; height:200px; margin-bottom: 0px;' src='stim/fixation.png'><img src='stim/a/Field15.bmp'>","49","html-keyboard-response","62","30211","0.0-11.0-1.25","test","dg","g","49"
"null","<img style='width:200px; height:200px; margin-left: 95px; margin-right: 95px;' src='stim/fixation.png'>","null","html-keyboard-response","63","30723","0.0-11.0-0.26","fixation","","",""
"70","<img src='stim/a/Field15.bmp'><img style='width:200px; height:200px; margin-bottom: 0px;' src='stim/fixation.png'><img src='stim/a/Field16.bmp'>","49","html-keyboard-response","64","30795","0.0-11.0-1.26","test","gh","g","49"
"null","<img style='width:200px; height:200px; margin-left: 95px; margin-right: 95px;' src='stim/fixation.png'>","null","html-keyboard-response","65","31312","0.0-11.0-0.27","fixation","","",""
"400.90000000000145","<img src='stim/a/Field3.bmp'><img style='width:200px; height:200px; margin-bottom: 0px;' src='stim/fixation.png'><img src='stim/a/Field9.bmp'>","49","html-keyboard-response","66","31715","0.0-11.0-1.27","test","ae","a","49"
"null","<img style='width:200px; height:200px; margin-left: 95px; margin-right: 95px;' src='stim/fixation.png'>","null","html-keyboard-response","67","32232","0.0-11.0-0.28","fixation","","",""
"216.6999999999971","<img src='stim/a/Field9.bmp'><img style='width:200px; height:200px; margin-bottom: 0px;' src='stim/fixation.png'><img src='stim/a/Field3.bmp'>","49","html-keyboard-response","68","32451","0.0-11.0-1.28","test","ae","a","50"
"null","<img style='width:200px; height:200px; margin-left: 95px; margin-right: 95px;' src='stim/fixation.png'>","null","html-keyboard-response","69","32968","0.0-11.0-0.29","fixation","","",""
"200.6999999999971","<img src='stim/a/Field15.bmp'><img style='width:200px; height:200px; margin-bottom: 0px;' src='stim/fixation.png'><img src='stim/a/Field11.bmp'>","49","html-keyboard-response","70","33172","0.0-11.0-1.29","test","dg","g","50"
"null","<img style='width:200px; height:200px; margin-left: 95px; margin-right: 95px;' src='stim/fixation.png'>","null","html-keyboard-response","71","33688","0.0-11.0-0.30","fixation","","",""
"145.20000000000436","<img src='stim/a/Field14.bmp'><img style='width:200px; height:200px; margin-bottom: 0px;' src='stim/fixation.png'><img src='stim/a/Field11.bmp'>","49","html-keyboard-response","72","33835","0.0-11.0-1.30","test","cd","c","49"
"null","<img style='width:200px; height:200px; margin-left: 95px; margin-right: 95px;' src='stim/fixation.png'>","null","html-keyboard-response","73","34351","0.0-11.0-0.31","fixation","","",""
"241.40000000000145","<img src='stim/a/Field14.bmp'><img style='width:200px; height:200px; margin-bottom: 0px;' src='stim/fixation.png'><img src='stim/a/Field16.bmp'>","49","html-keyboard-response","74","34595","0.0-11.0-1.31","test","ch","c","49"
"null","<img style='width:200px; height:200px; margin-left: 95px; margin-right: 95px;' src='stim/fixation.png'>","null","html-keyboard-response","75","35112","0.0-11.0-0.32","fixation","","",""
"160.79999999999563","<img src='stim/a/Field12.bmp'><img style='width:200px; height:200px; margin-bottom: 0px;' src='stim/fixation.png'><img src='stim/a/Field9.bmp'>","49","html-keyboard-response","76","35275","0.0-11.0-1.32","test","ef","e","50"
"null","<img style='width:200px; height:200px; margin-left: 95px; margin-right: 95px;' src='stim/fixation.png'>","null","html-keyboard-response","77","35791","0.0-11.0-0.33","fixation","","",""
"132.79999999999563","<img src='stim/a/Field16.bmp'><img style='width:200px; height:200px; margin-bottom: 0px;' src='stim/fixation.png'><img src='stim/a/Field3.bmp'>","49","html-keyboard-response","78","35927","0.0-11.0-1.33","test","ah","a","50"
"null","<img style='width:200px; height:200px; margin-left: 95px; margin-right: 95px;' src='stim/fixation.png'>","null","html-keyboard-response","79","36444","0.0-11.0-0.34","fixation","","",""
"93","<img src='stim/a/Field14.bmp'><img style='width:200px; height:200px; margin-bottom: 0px;' src='stim/fixation.png'><img src='stim/a/Field9.bmp'>","49","html-keyboard-response","80","36539","0.0-11.0-1.34","test","ce","c","49"
"null","<img style='width:200px; height:200px; margin-left: 95px; margin-right: 95px;' src='stim/fixation.png'>","null","html-keyboard-response","81","37055","0.0-11.0-0.35","fixation","","",""
"25.30000000000291","<img src='stim/a/Field11.bmp'><img style='width:200px; height:200px; margin-bottom: 0px;' src='stim/fixation.png'><img src='stim/a/Field15.bmp'>","49","html-keyboard-response","82","37084","0.0-11.0-1.35","test","dg","g","49"
"null","<img style='width:200px; height:200px; margin-left: 95px; margin-right: 95px;' src='stim/fixation.png'>","null","html-keyboard-response","83","37603","0.0-11.0-0.36","fixation","","",""
"62.200000000004366","<img src='stim/a/Field15.bmp'><img style='width:200px; height:200px; margin-bottom: 0px;' src='stim/fixation.png'><img src='stim/a/Field16.bmp'>","49","html-keyboard-response","84","37667","0.0-11.0-1.36","test","gh","g","49"
"null","<img style='width:200px; height:200px; margin-left: 95px; margin-right: 95px;' src='stim/fixation.png'>","null","html-keyboard-response","85","38182","0.0-11.0-0.37","fixation","","",""
"418.09999999999854","<img src='stim/a/Field14.bmp'><img style='width:200px; height:200px; margin-bottom: 0px;' src='stim/fixation.png'><img src='stim/a/Field15.bmp'>","49","html-keyboard-response","86","38603","0.0-11.0-1.37","test","cg","c","49"
"null","<img style='width:200px; height:200px; margin-left: 95px; margin-right: 95px;' src='stim/fixation.png'>","null","html-keyboard-response","87","39118","0.0-11.0-0.38","fixation","","",""
"234.29999999999563","<img src='stim/a/Field3.bmp'><img style='width:200px; height:200px; margin-bottom: 0px;' src='stim/fixation.png'><img src='stim/a/Field15.bmp'>","49","html-keyboard-response","88","39356","0.0-11.0-1.38","test","ag","a","49"
"null","<img style='width:200px; height:200px; margin-left: 95px; margin-right: 95px;' src='stim/fixation.png'>","null","html-keyboard-response","89","39873","0.0-11.0-0.39","fixation","","",""
"104.29999999999563","<img src='stim/a/Field3.bmp'><img style='width:200px; height:200px; margin-bottom: 0px;' src='stim/fixation.png'><img src='stim/a/Field12.bmp'>","49","html-keyboard-response","90","39979","0.0-11.0-1.39","test","af","a","49"
"null","<img style='width:200px; height:200px; margin-left: 95px; margin-right: 95px;' src='stim/fixation.png'>","null","html-keyboard-response","91","40495","0.0-11.0-0.40","fixation","","",""
"194.09999999999854","<img src='stim/a/Field11.bmp'><img style='width:200px; height:200px; margin-bottom: 0px;' src='stim/fixation.png'><img src='stim/a/Field14.bmp'>","49","html-keyboard-response","92","40691","0.0-11.0-1.40","test","cd","c","50"
"null","<img style='width:200px; height:200px; margin-left: 95px; margin-right: 95px;' src='stim/fixation.png'>","null","html-keyboard-response","93","41205","0.0-11.0-0.41","fixation","","",""
"131.09999999999854","<img src='stim/a/Field5.bmp'><img style='width:200px; height:200px; margin-bottom: 0px;' src='stim/fixation.png'><img src='stim/a/Field3.bmp'>","49","html-keyboard-response","94","41339","0.0-11.0-1.41","test","ab","a","50"
"null","<img style='width:200px; height:200px; margin-left: 95px; margin-right: 95px;' src='stim/fixation.png'>","null","html-keyboard-response","95","41855","0.0-11.0-0.42","fixation","","",""
"129","<img src='stim/a/Field9.bmp'><img style='width:200px; height:200px; margin-bottom: 0px;' src='stim/fixation.png'><img src='stim/a/Field3.bmp'>","49","html-keyboard-response","96","41988","0.0-11.0-1.42","test","ae","a","50"
"null","<img style='width:200px; height:200px; margin-left: 95px; margin-right: 95px;' src='stim/fixation.png'>","null","html-keyboard-response","97","42504","0.0-11.0-0.43","fixation","","",""
"169.09999999999854","<img src='stim/a/Field14.bmp'><img style='width:200px; height:200px; margin-bottom: 0px;' src='stim/fixation.png'><img src='stim/a/Field11.bmp'>","49","html-keyboard-response","98","42676","0.0-11.0-1.43","test","cd","c","49"
"null","<img style='width:200px; height:200px; margin-left: 95px; margin-right: 95px;' src='stim/fixation.png'>","null","html-keyboard-response","99","43191","0.0-11.0-0.44","fixation","","",""
"225.29999999999563","<img src='stim/a/Field9.bmp'><img style='width:200px; height:200px; margin-bottom: 0px;' src='stim/fixation.png'><img src='stim/a/Field14.bmp'>","49","html-keyboard-response","100","43419","0.0-11.0-1.44","test","ce","c","50"
"null","<img style='width:200px; height:200px; margin-left: 95px; margin-right: 95px;' src='stim/fixation.png'>","null","html-keyboard-response","101","43935","0.0-11.0-0.45","fixation","","",""
"201","<img src='stim/a/Field16.bmp'><img style='width:200px; height:200px; margin-bottom: 0px;' src='stim/fixation.png'><img src='stim/a/Field14.bmp'>","49","html-keyboard-response","102","44139","0.0-11.0-1.45","test","ch","c","50"
"null","<img style='width:200px; height:200px; margin-left: 95px; margin-right: 95px;' src='stim/fixation.png'>","null","html-keyboard-response","103","44656","0.0-11.0-0.46","fixation","","",""
"377.20000000000436","<img src='stim/a/Field15.bmp'><img style='width:200px; height:200px; margin-bottom: 0px;' src='stim/fixation.png'><img src='stim/a/Field14.bmp'>","49","html-keyboard-response","104","45036","0.0-11.0-1.46","test","cg","c","50"
"null","<img style='width:200px; height:200px; margin-left: 95px; margin-right: 95px;' src='stim/fixation.png'>","null","html-keyboard-response","105","45551","0.0-11.0-0.47","fixation","","",""
"305.29999999999563","<img src='stim/a/Field15.bmp'><img style='width:200px; height:200px; margin-bottom: 0px;' src='stim/fixation.png'><img src='stim/a/Field5.bmp'>","49","html-keyboard-response","106","45860","0.0-11.0-1.47","test","bg","g","50"
"null","<img style='width:200px; height:200px; margin-left: 95px; margin-right: 95px;' src='stim/fixation.png'>","null","html-keyboard-response","107","46375","0.0-11.0-0.48","fixation","","",""
"241","<img src='stim/a/Field14.bmp'><img style='width:200px; height:200px; margin-bottom: 0px;' src='stim/fixation.png'><img src='stim/a/Field16.bmp'>","49","html-keyboard-response","108","46620","0.0-11.0-1.48","test","ch","c","49"
"null","<img style='width:200px; height:200px; margin-left: 95px; margin-right: 95px;' src='stim/fixation.png'>","null","html-keyboard-response","109","47135","0.0-11.0-0.49","fixation","","",""
"153.5","<img src='stim/a/Field12.bmp'><img style='width:200px; height:200px; margin-bottom: 0px;' src='stim/fixation.png'><img src='stim/a/Field3.bmp'>","49","html-keyboard-response","110","47292","0.0-11.0-1.49","test","af","a","50"
"null","<img style='width:200px; height:200px; margin-left: 95px; margin-right: 95px;' src='stim/fixation.png'>","null","html-keyboard-response","111","47807","0.0-11.0-0.50","fixation","","",""
"257.3999999999942","<img src='stim/a/Field14.bmp'><img style='width:200px; height:200px; margin-bottom: 0px;' src='stim/fixation.png'><img src='stim/a/Field12.bmp'>","49","html-keyboard-response","112","48068","0.0-11.0-1.50","test","cf","c","49"
"null","<img style='width:200px; height:200px; margin-left: 95px; margin-right: 95px;' src='stim/fixation.png'>","null","html-keyboard-response","113","48584","0.0-11.0-0.51","fixation","","",""
"296.90000000000145","<img src='stim/a/Field15.bmp'><img style='width:200px; height:200px; margin-bottom: 0px;' src='stim/fixation.png'><img src='stim/a/Field3.bmp'>","49","html-keyboard-response","114","48883","0.0-11.0-1.51","test","ag","a","50"
"null","<img style='width:200px; height:200px; margin-left: 95px; margin-right: 95px;' src='stim/fixation.png'>","null","html-keyboard-response","115","49399","0.0-11.0-0.52","fixation","","",""
"273.29999999999563","<img src='stim/a/Field5.bmp'><img style='width:200px; height:200px; margin-bottom: 0px;' src='stim/fixation.png'><img src='stim/a/Field15.bmp'>","49","html-keyboard-response","116","49675","0.0-11.0-1.52","test","bg","g","49"
"null","<img style='width:200px; height:200px; margin-left: 95px; margin-right: 95px;' src='stim/fixation.png'>","null","html-keyboard-response","117","50191","0.0-11.0-0.53","fixation","","",""
"249.20000000000436","<img src='stim/a/Field16.bmp'><img style='width:200px; height:200px; margin-bottom: 0px;' src='stim/fixation.png'><img src='stim/a/Field15.bmp'>","49","html-keyboard-response","118","50443","0.0-11.0-1.53","test","gh","g","50"
"null","<img style='width:200px; height:200px; margin-left: 95px; margin-right: 95px;' src='stim/fixation.png'>","null","html-keyboard-response","119","50960","0.0-11.0-0.54","fixation","","",""
"248.5","<img src='stim/a/Field9.bmp'><img style='width:200px; height:200px; margin-bottom: 0px;' src='stim/fixation.png'><img src='stim/a/Field5.bmp'>","49","html-keyboard-response","120","51211","0.0-11.0-1.54","test","be","e","50"
"null","<img style='width:200px; height:200px; margin-left: 95px; margin-right: 95px;' src='stim/fixation.png'>","null","html-keyboard-response","121","51727","0.0-11.0-0.55","fixation","","",""
"272.59999999999854","<img src='stim/a/Field9.bmp'><img style='width:200px; height:200px; margin-bottom: 0px;' src='stim/fixation.png'><img src='stim/a/Field12.bmp'>","49","html-keyboard-response","122","52003","0.0-11.0-1.55","test","ef","e","49"
"null","<img style='width:200px; height:200px; margin-left: 95px; margin-right: 95px;' src='stim/fixation.png'>","null","html-keyboard-response","123","52520","0.0-11.0-0.56","fixation","","",""
"288.6999999999971","<img src='stim/a/Field15.bmp'><img style='width:200px; height:200px; margin-bottom: 0px;' src='stim/fixation.png'><img src='stim/a/Field11.bmp'>","49","html-keyboard-response","124","52811","0.0-11.0-1.56","test","dg","g","50"
"null","<img style='width:200px; height:200px; margin-left: 95px; margin-right: 95px;' src='stim/fixation.png'>","null","html-keyboard-response","125","53327","0.0-11.0-0.57","fixation","","",""
"296.3000000000029","<img src='stim/a/Field3.bmp'><img style='width:200px; height:200px; margin-bottom: 0px;' src='stim/fixation.png'><img src='stim/a/Field16.bmp'>","49","html-keyboard-response","126","53627","0.0-11.0-1.57","test","ah","a","49"
"null","<img style='width:200px; height:200px; margin-left: 95px; margin-right: 95px;' src='stim/fixation.png'>","null","html-keyboard-response","127","54143","0.0-11.0-0.58","fixation","","",""
"281.8000000000029","<img src='stim/a/Field5.bmp'><img style='width:200px; height:200px; margin-bottom: 0px;' src='stim/fixation.png'><img src='stim/a/Field9.bmp'>","49","html-keyboard-response","128","54428","0.0-11.0-1.58","test","be","e","49"
"null","<img style='width:200px; height:200px; margin-left: 95px; margin-right: 95px;' src='stim/fixation.png'>","null","html-keyboard-response","129","54944","0.0-11.0-0.59","fixation","","",""
"304.40000000000145","<img src='stim/a/Field12.bmp'><img style='width:200px; height:200px; margin-bottom: 0px;' src='stim/fixation.png'><img src='stim/a/Field14.bmp'>","49","html-keyboard-response","130","55251","0.0-11.0-1.59","test","cf","c","50"
"null","<img style='width:200px; height:200px; margin-left: 95px; margin-right: 95px;' src='stim/fixation.png'>","null","html-keyboard-response","131","55767","0.0-11.0-0.60","fixation","","",""
"81.5","<img src='stim/a/Field9.bmp'><img style='width:200px; height:200px; margin-bottom: 0px;' src='stim/fixation.png'><img src='stim/a/Field11.bmp'>","49","html-keyboard-response","132","55852","0.0-11.0-1.60","test","de","e","50"
"null","<img style='width:200px; height:200px; margin-left: 95px; margin-right: 95px;' src='stim/fixation.png'>","null","html-keyboard-response","133","56367","0.0-11.0-0.61","fixation","","",""
"242.09999999999854","<img src='stim/a/Field3.bmp'><img style='width:200px; height:200px; margin-bottom: 0px;' src='stim/fixation.png'><img src='stim/a/Field5.bmp'>","49","html-keyboard-response","134","56611","0.0-11.0-1.61","test","ab","a","49"
"null","<img style='width:200px; height:200px; margin-left: 95px; margin-right: 95px;' src='stim/fixation.png'>","null","html-keyboard-response","135","57127","0.0-11.0-0.62","fixation","","",""
"241.8000000000029","<img src='stim/a/Field3.bmp'><img style='width:200px; height:200px; margin-bottom: 0px;' src='stim/fixation.png'><img src='stim/a/Field9.bmp'>","49","html-keyboard-response","136","57372","0.0-11.0-1.62","test","ae","a","49"
"null","<img style='width:200px; height:200px; margin-left: 95px; margin-right: 95px;' src='stim/fixation.png'>","null","html-keyboard-response","137","57887","0.0-11.0-0.63","fixation","","",""
"25.200000000004365","<img src='stim/a/Field11.bmp'><img style='width:200px; height:200px; margin-bottom: 0px;' src='stim/fixation.png'><img src='stim/a/Field9.bmp'>","49","html-keyboard-response","138","57915","0.0-11.0-1.63","test","de","e","49"
"null","<img style='width:200px; height:200px; margin-left: 95px; margin-right: 95px;' src='stim/fixation.png'>","null","html-keyboard-response","139","58418","0.0-11.0-0.64","fixation","","",""
"38.299999999995634","<img src='stim/a/Field3.bmp'><img style='width:200px; height:200px; margin-bottom: 0px;' src='stim/fixation.png'><img src='stim/a/Field9.bmp'>","49","html-keyboard-response","140","58459","0.0-11.0-1.64","test","ae","a","49"
"null","<img style='width:200px; height:200px; margin-left: 95px; margin-right: 95px;' src='stim/fixation.png'>","null","html-keyboard-response","141","58976","0.0-11.0-0.65","fixation","","",""
"264.5","<img src='stim/a/Field14.bmp'><img style='width:200px; height:200px; margin-bottom: 0px;' src='stim/fixation.png'><img src='stim/a/Field12.bmp'>","49","html-keyboard-response","142","59243","0.0-11.0-1.65","test","cf","c","49"
"null","<img style='width:200px; height:200px; margin-left: 95px; margin-right: 95px;' src='stim/fixation.png'>","null","html-keyboard-response","143","59761","0.0-11.0-0.66","fixation","","",""
"24.400000000001455","<img src='stim/a/Field15.bmp'><img style='width:200px; height:200px; margin-bottom: 0px;' src='stim/fixation.png'><img src='stim/a/Field5.bmp'>","49","html-keyboard-response","144","59787","0.0-11.0-1.66","test","bg","g","50"
"null","<img style='width:200px; height:200px; margin-left: 95px; margin-right: 95px;' src='stim/fixation.png'>","null","html-keyboard-response","145","60295","0.0-11.0-0.67","fixation","","",""
"28.19999999999709","<img src='stim/a/Field3.bmp'><img style='width:200px; height:200px; margin-bottom: 0px;' src='stim/fixation.png'><img src='stim/a/Field5.bmp'>","49","html-keyboard-response","146","60325","0.0-11.0-1.67","test","ab","a","49"
"null","<img style='width:200px; height:200px; margin-left: 95px; margin-right: 95px;' src='stim/fixation.png'>","null","html-keyboard-response","147","60836","0.0-11.0-0.68","fixation","","",""
"325.20000000001164","<img src='stim/a/Field3.bmp'><img style='width:200px; height:200px; margin-bottom: 0px;' src='stim/fixation.png'><img src='stim/a/Field12.bmp'>","49","html-keyboard-response","148","61164","0.0-11.0-1.68","test","af","a","49"
"null","<img style='width:200px; height:200px; margin-left: 95px; margin-right: 95px;' src='stim/fixation.png'>","null","html-keyboard-response","149","61682","0.0-11.0-0.69","fixation","","",""
"390.8999999999942","<img src='stim/a/Field15.bmp'><img style='width:200px; height:200px; margin-bottom: 0px;' src='stim/fixation.png'><img src='stim/a/Field11.bmp'>","49","html-keyboard-response","150","62075","0.0-11.0-1.69","test","dg","g","50"
"null","<img style='width:200px; height:200px; margin-left: 95px; margin-right: 95px;' src='stim/fixation.png'>","null","html-keyboard-response","151","62592","0.0-11.0-0.70","fixation","","",""
"303.5","<img src='stim/a/Field9.bmp'><img style='width:200px; height:200px; margin-bottom: 0px;' src='stim/fixation.png'><img src='stim/a/Field11.bmp'>","49","html-keyboard-response","152","62899","0.0-11.0-1.70","test","de","e","50"
"null","<img style='width:200px; height:200px; margin-left: 95px; margin-right: 95px;' src='stim/fixation.png'>","null","html-keyboard-response","153","63416","0.0-11.0-0.71","fixation","","",""
"392","<img src='stim/a/Field11.bmp'><img style='width:200px; height:200px; margin-bottom: 0px;' src='stim/fixation.png'><img src='stim/a/Field9.bmp'>","49","html-keyboard-response","154","63811","0.0-11.0-1.71","test","de","e","49"
"null","<img style='width:200px; height:200px; margin-left: 95px; margin-right: 95px;' src='stim/fixation.png'>","null","html-keyboard-response","155","64329","0.0-11.0-0.72","fixation","","",""
"273.09999999999127","<img src='stim/a/Field3.bmp'><img style='width:200px; height:200px; margin-bottom: 0px;' src='stim/fixation.png'><img src='stim/a/Field15.bmp'>","49","html-keyboard-response","156","64605","0.0-11.0-1.72","test","ag","a","49"
"null","<img style='width:200px; height:200px; margin-left: 95px; margin-right: 95px;' src='stim/fixation.png'>","null","html-keyboard-response","157","65123","0.0-11.0-0.73","fixation","","",""
"254.3000000000029","<img src='stim/a/Field14.bmp'><img style='width:200px; height:200px; margin-bottom: 0px;' src='stim/fixation.png'><img src='stim/a/Field9.bmp'>","49","html-keyboard-response","158","65380","0.0-11.0-1.73","test","ce","c","49"
"null","<img style='width:200px; height:200px; margin-left: 95px; margin-right: 95px;' src='stim/fixation.png'>","null","html-keyboard-response","159","65898","0.0-11.0-0.74","fixation","","",""
"263.1999999999971","<img src='stim/a/Field9.bmp'><img style='width:200px; height:200px; margin-bottom: 0px;' src='stim/fixation.png'><img src='stim/a/Field5.bmp'>","49","html-keyboard-response","160","66164","0.0-11.0-1.74","test","be","e","50"
"null","<img style='width:200px; height:200px; margin-left: 95px; margin-right: 95px;' src='stim/fixation.png'>","null","html-keyboard-response","161","66666","0.0-11.0-0.75","fixation","","",""
"247.09999999999127","<img src='stim/a/Field5.bmp'><img style='width:200px; height:200px; margin-bottom: 0px;' src='stim/fixation.png'><img src='stim/a/Field3.bmp'>","49","html-keyboard-response","162","66915","0.0-11.0-1.75","test","ab","a","50"
"null","<img style='width:200px; height:200px; margin-left: 95px; margin-right: 95px;' src='stim/fixation.png'>","null","html-keyboard-response","163","67431","0.0-11.0-0.76","fixation","","",""
"194.59999999999127","<img src='stim/a/Field9.bmp'><img style='width:200px; height:200px; margin-bottom: 0px;' src='stim/fixation.png'><img src='stim/a/Field14.bmp'>","49","html-keyboard-response","164","67628","0.0-11.0-1.76","test","ce","c","50"
"null","<img style='width:200px; height:200px; margin-left: 95px; margin-right: 95px;' src='stim/fixation.png'>","null","html-keyboard-response","165","68146","0.0-11.0-0.77","fixation","","",""
"151.20000000001164","<img src='stim/a/Field14.bmp'><img style='width:200px; height:200px; margin-bottom: 0px;' src='stim/fixation.png'><img src='stim/a/Field16.bmp'>","49","html-keyboard-response","166","68299","0.0-11.0-1.77","test","ch","c","49"
"null","<img style='width:200px; height:200px; margin-left: 95px; margin-right: 95px;' src='stim/fixation.png'>","null","html-keyboard-response","167","68802","0.0-11.0-0.78","fixation","","",""
"222.39999999999418","<img src='stim/a/Field9.bmp'><img style='width:200px; height:200px; margin-bottom: 0px;' src='stim/fixation.png'><img src='stim/a/Field3.bmp'>","49","html-keyboard-response","168","69028","0.0-11.0-1.78","test","ae","a","50"
"null","<img style='width:200px; height:200px; margin-left: 95px; margin-right: 95px;' src='stim/fixation.png'>","null","html-keyboard-response","169","69545","0.0-11.0-0.79","fixation","","",""
"168.79999999998836","<img src='stim/a/Field11.bmp'><img style='width:200px; height:200px; margin-bottom: 0px;' src='stim/fixation.png'><img src='stim/a/Field15.bmp'>","49","html-keyboard-response","170","69717","0.0-11.0-1.79","test","dg","g","49"
"null","<img style='width:200px; height:200px; margin-left: 95px; margin-right: 95px;' src='stim/fixation.png'>","null","html-keyboard-response","171","70233","0.0-11.0-0.80","fixation","","",""
"15.599999999991268","<img src='stim/a/Field9.bmp'><img style='width:200px; height:200px; margin-bottom: 0px;' src='stim/fixation.png'><img src='stim/a/Field12.bmp'>","49","html-keyboard-response","172","70252","0.0-11.0-1.80","test","ef","e","49"
"null","<img style='width:200px; height:200px; margin-left: 95px; margin-right: 95px;' src='stim/fixation.png'>","null","html-keyboard-response","173","70765","0.0-11.0-0.81","fixation","","",""
"51.89999999999418","<img src='stim/a/Field16.bmp'><img style='width:200px; height:200px; margin-bottom: 0px;' src='stim/fixation.png'><img src='stim/a/Field14.bmp'>","49","html-keyboard-response","174","70819","0.0-11.0-1.81","test","ch","c","50"
"null","<img style='width:200px; height:200px; margin-left: 95px; margin-right: 95px;' src='stim/fixation.png'>","null","html-keyboard-response","175","71336","0.0-11.0-0.82","fixation","","",""
"455.8000000000029","<img src='stim/a/Field5.bmp'><img style='width:200px; height:200px; margin-bottom: 0px;' src='stim/fixation.png'><img src='stim/a/Field9.bmp'>","49","html-keyboard-response","176","71796","0.0-11.0-1.82","test","be","e","49"
"null","<img style='width:200px; height:200px; margin-left: 95px; margin-right: 95px;' src='stim/fixation.png'>","null","html-keyboard-response","177","72313","0.0-11.0-0.83","fixation","","",""
"350.8000000000029","<img src='stim/a/Field11.bmp'><img style='width:200px; height:200px; margin-bottom: 0px;' src='stim/fixation.png'><img src='stim/a/Field14.bmp'>","49","html-keyboard-response","178","72667","0.0-11.0-1.83","test","cd","c","50"
"null","<img style='width:200px; height:200px; margin-left: 95px; margin-right: 95px;' src='stim/fixation.png'>","null","html-keyboard-response","179","73169","0.0-11.0-0.84","fixation","","",""
"7.100000000005821","<img src='stim/a/Field12.bmp'><img style='width:200px; height:200px; margin-bottom: 0px;' src='stim/fixation.png'><img src='stim/a/Field3.bmp'>","49","html-keyboard-response","180","73180","0.0-11.0-1.84","test","af","a","50"
"null","<img style='width:200px; height:200px; margin-left: 95px; margin-right: 95px;' src='stim/fixation.png'>","null","html-keyboard-response","181","73685","0.0-11.0-0.85","fixation","","",""
"339","<img src='stim/a/Field14.bmp'><img style='width:200px; height:200px; margin-bottom: 0px;' src='stim/fixation.png'><img src='stim/a/Field15.bmp'>","49","html-keyboard-response","182","74028","0.0-11.0-1.85","test","cg","c","49"
"null","<img style='width:200px; height:200px; margin-left: 95px; margin-right: 95px;' src='stim/fixation.png'>","null","html-keyboard-response","183","74544","0.0-11.0-0.86","fixation","","",""
"312","<img src='stim/a/Field16.bmp'><img style='width:200px; height:200px; margin-bottom: 0px;' src='stim/fixation.png'><img src='stim/a/Field3.bmp'>","49","html-keyboard-response","184","74861","0.0-11.0-1.86","test","ah","a","50"
"null","<img style='width:200px; height:200px; margin-left: 95px; margin-right: 95px;' src='stim/fixation.png'>","null","html-keyboard-response","185","75365","0.0-11.0-0.87","fixation","","",""
"347.3999999999942","<img src='stim/a/Field15.bmp'><img style='width:200px; height:200px; margin-bottom: 0px;' src='stim/fixation.png'><img src='stim/a/Field16.bmp'>","49","html-keyboard-response","186","75715","0.0-11.0-1.87","test","gh","g","49"
"null","<img style='width:200px; height:200px; margin-left: 95px; margin-right: 95px;' src='stim/fixation.png'>","null","html-keyboard-response","187","76233","0.0-11.0-0.88","fixation","","",""
"358.8000000000029","<img src='stim/a/Field12.bmp'><img style='width:200px; height:200px; margin-bottom: 0px;' src='stim/fixation.png'><img src='stim/a/Field9.bmp'>","49","html-keyboard-response","188","76595","0.0-11.0-1.88","test","ef","e","50"
"null","<img style='width:200px; height:200px; margin-left: 95px; margin-right: 95px;' src='stim/fixation.png'>","null","html-keyboard-response","189","77112","0.0-11.0-0.89","fixation","","",""
"432.8999999999942","<img src='stim/a/Field3.bmp'><img style='width:200px; height:200px; margin-bottom: 0px;' src='stim/fixation.png'><img src='stim/a/Field16.bmp'>","49","html-keyboard-response","190","77547","0.0-11.0-1.89","test","ah","a","49"
"null","<img style='width:200px; height:200px; margin-left: 95px; margin-right: 95px;' src='stim/fixation.png'>","null","html-keyboard-response","191","78064","0.0-11.0-0.90","fixation","","",""
"303.6000000000058","<img src='stim/a/Field15.bmp'><img style='width:200px; height:200px; margin-bottom: 0px;' src='stim/fixation.png'><img src='stim/a/Field14.bmp'>","49","html-keyboard-response","192","78372","0.0-11.0-1.90","test","cg","c","50"
"null","<img style='width:200px; height:200px; margin-left: 95px; margin-right: 95px;' src='stim/fixation.png'>","null","html-keyboard-response","193","78888","0.0-11.0-0.91","fixation","","",""
"201.10000000000582","<img src='stim/a/Field14.bmp'><img style='width:200px; height:200px; margin-bottom: 0px;' src='stim/fixation.png'><img src='stim/a/Field11.bmp'>","49","html-keyboard-response","194","79092","0.0-11.0-1.91","test","cd","c","49"
"null","<img style='width:200px; height:200px; margin-left: 95px; margin-right: 95px;' src='stim/fixation.png'>","null","html-keyboard-response","195","79609","0.0-11.0-0.92","fixation","","",""
"262.70000000001164","<img src='stim/a/Field16.bmp'><img style='width:200px; height:200px; margin-bottom: 0px;' src='stim/fixation.png'><img src='stim/a/Field15.bmp'>","49","html-keyboard-response","196","79875","0.0-11.0-1.92","test","gh","g","50"
"null","<img style='width:200px; height:200px; margin-left: 95px; margin-right: 95px;' src='stim/fixation.png'>","null","html-keyboard-response","197","80392","0.0-11.0-0.93","fixation","","",""
"209","<img src='stim/a/Field12.bmp'><img style='width:200px; height:200px; margin-bottom: 0px;' src='stim/fixation.png'><img src='stim/a/Field14.bmp'>","49","html-keyboard-response","198","80603","0.0-11.0-1.93","test","cf","c","50"
"null","<img style='width:200px; height:200px; margin-left: 95px; margin-right: 95px;' src='stim/fixation.png'>","null","html-keyboard-response","199","81121","0.0-11.0-0.94","fixation","","",""
"183.6999999999971","<img src='stim/a/Field15.bmp'><img style='width:200px; height:200px; margin-bottom: 0px;' src='stim/fixation.png'><img src='stim/a/Field3.bmp'>","49","html-keyboard-response","200","81307","0.0-11.0-1.94","test","ag","a","50"
"null","<img style='width:200px; height:200px; margin-left: 95px; margin-right: 95px;' src='stim/fixation.png'>","null","html-keyboard-response","201","81824","0.0-11.0-0.95","fixation","","",""
"256","<img src='stim/a/Field5.bmp'><img style='width:200px; height:200px; margin-bottom: 0px;' src='stim/fixation.png'><img src='stim/a/Field15.bmp'>","49","html-keyboard-response","202","82084","0.0-11.0-1.95","test","bg","g","49"
"null","<p"">Thank you.</p>","null","html-keyboard-response","203","87098","0.0-12.0","","","",""
