"rt","stimulus","key_press","trial_type","trial_index","time_elapsed","internal_node_id","test_part","pair","pair_validity","trial_validity","pair_trials_per_block","pair_best_choice","reward_type","correct_response","stim_left","stim_right","stim_best_choice","subjectkey","src_subject_id","interview_date","interview_age","sex","handedness","trial","block","accuracy","reward_tally","stim_feedback","stim_set","reward_set"
"302.7300000003379","<h3 style=""color:#0ed145;"">Welcome to the experiment!</h3><p>Press the spacebar to continue.</p>","32","html-keyboard-response","0","306","0.0-0.0","","","","","","","","","","","","","","","","","","","","","","","",""
"137.83000000057655","<p>In this task you will see two pictures side-by-side on the computer screen.</p><p>In each pair of pictures you see on the screen, one picture will be better than the other.</p><p>You need to figure out which picture in each pair is the better one.</p><p>Press the spacebar to continue.</p>","32","html-keyboard-response","1","446","0.0-1.0","","","","","","","","","","","","","","","","","","","","","","","",""
"350.80999999991036","<p>The better picture in each pair will be more likely to either:</p><p>A) win you some money,</p><p>or</p><p>B) allow you to keep the money you've already earned.</p><p>Press the spacebar to continue.</p>","32","html-keyboard-response","2","798","0.0-2.0","","","","","","","","","","","","","","","","","","","","","","","",""
"220.30499999982567","<p>On those trials where you can A) win money, you will want to select the picture most likely to earn a nickel:</p><img style=""height:100px; width:100px"" src=""stim/winwin.bmp""</img><p>Because if you keep seeing this feedback:</p><img style=""height:125px; width:125px"" src=""stim/not_winner.png""></img><p>you probably aren't selecting the best picture...</p><p>Press the spacebar to continue.</p>","32","html-keyboard-response","3","1021","0.0-3.0","","","","","","","","","","","","","","","","","","","","","","","",""
"203.59999999982392","<p>On those trials where you can B) lose money, you will want to select the picture most likely to give this feedback:</p><img style=""height:125px; width:125px"" src=""stim/keep_money.png""></img><p>Because if you keep seeing this:</p><img style=""height:100px; width:100px"" src=""stim/loselose.bmp""></img><p>you probably aren't selecting the best picture...</p><p>Press the spacebar to continue.</p>","32","html-keyboard-response","4","1228","0.0-4.0","","","","","","","","","","","","","","","","","","","","","","","",""
"109.16500000075757","<p>Press the 1 key on your keyboard to select the picture on the LEFT.</p><p>Press the 0 key on your keyboard to select the picture on the RIGHT.</p><p>Press the spacebar to continue.</p>","32","html-keyboard-response","5","1339","0.0-5.0","","","","","","","","","","","","","","","","","","","","","","","",""
"992.6300000006449","<p>First, you will do some practice trials.</p> <p>Press either response button when you are ready to begin.</p>","48","html-keyboard-response","6","2332","0.0-6.0","","","","","","","","","","","","","","","","","","","","","","","",""
"null","<img style='width:200px; height:200px; margin-left: 95px; margin-right: 95px;' src='stim/fixation.png'>","null","html-keyboard-response","7","2835","0.0-7.0-0.0","","","","","","","","","","","","","","","","","","","","","","","",""
"6361.110000000735","<img src='stim/b/wheat_with_farmhouse.jpg'><img style='width:200px; height:200px; margin-bottom: 0px;' src='stim/fixation.png'><img src='stim/b/Trees_with_flowers.jpg'>","48","html-keyboard-response","8","9203","0.0-7.0-1.0","practice","ef","1","valid","6","e","avoid:lose","48","wheat_with_farmhouse.jpg","Trees_with_flowers.jpg","Trees_with_flowers.jpg","GUID","1322","11/11/2020","12","M","left","-1","1","1","0","keep_money.png","B","money"
"null","<img style='border: 5px solid #ffffff; padding-right:15px;' src='stim/b/wheat_with_farmhouse.jpg'><img style='width:150px; height:150px; padding-right: 50px; padding-left: 50px; margin-bottom: 25px;' src='stim/keep_money.png'><img style='border: 5px solid #808080;'src='stim/b/Trees_with_flowers.jpg'>","null","html-keyboard-response","9","10206","0.0-7.0-2.0","","","","","","","","","","","","","","","","","","","","","","","",""
"null","<img style='width:200px; height:200px; margin-left: 95px; margin-right: 95px;' src='stim/fixation.png'>","null","html-keyboard-response","10","11214","0.0-7.0-0.1","","","","","","","","","","","","","","","","","","","","","","","",""
"169.0150000003996","<img src='stim/b/African_landscape.jpg'><img style='width:200px; height:200px; margin-bottom: 0px;' src='stim/fixation.png'><img src='stim/b/closeWater_pines_mountains.jpg'>","49","html-keyboard-response","11","11388","0.0-7.0-1.1","practice","ab","1","valid","6","a","win:stay","49","African_landscape.jpg","closeWater_pines_mountains.jpg","African_landscape.jpg","GUID","1322","11/11/2020","12","M","left","-2","1","1","0.05","winwin.bmp","B","money"
"null","<img style='border: 5px solid #808080;' src='stim/b/African_landscape.jpg'><img style='width:150px; height:150px; padding-right: 50px; padding-left: 50px; margin-bottom: 25px;' src='stim/winwin.bmp'><img style='border: 5px solid #ffffff;  padding-left:15px;' src='stim/b/closeWater_pines_mountains.jpg'>","null","html-keyboard-response","12","12395","0.0-7.0-2.1","","","","","","","","","","","","","","","","","","","","","","","",""
"null","<img style='width:200px; height:200px; margin-left: 95px; margin-right: 95px;' src='stim/fixation.png'>","null","html-keyboard-response","13","13400","0.0-7.0-0.2","","","","","","","","","","","","","","","","","","","","","","","",""
"133.60000000011496","<img src='stim/b/Trees_with_flowers.jpg'><img style='width:200px; height:200px; margin-bottom: 0px;' src='stim/fixation.png'><img src='stim/b/wheat_with_farmhouse.jpg'>","48","html-keyboard-response","14","13538","0.0-7.0-1.2","practice","ef","1","valid","6","e","avoid:lose","49","Trees_with_flowers.jpg","wheat_with_farmhouse.jpg","Trees_with_flowers.jpg","GUID","1322","11/11/2020","12","M","left","-3","1","0","","loselose.bmp","B","money"
"null","<img style='border: 5px solid #ffffff; padding-right:15px;' src='stim/b/Trees_with_flowers.jpg'><img style='width:150px; height:150px; padding-right: 50px; padding-left: 50px; margin-bottom: 25px;' src='stim/loselose.bmp'><img style='border: 5px solid #808080;'src='stim/b/wheat_with_farmhouse.jpg'>","null","html-keyboard-response","15","14544","0.0-7.0-2.2","","","","","","","","","","","","","","","","","","","","","","","",""
"null","<img style='width:200px; height:200px; margin-left: 95px; margin-right: 95px;' src='stim/fixation.png'>","null","html-keyboard-response","16","15550","0.0-7.0-0.3","","","","","","","","","","","","","","","","","","","","","","","",""
"181.28500000057102","<img src='stim/b/African_landscape.jpg'><img style='width:200px; height:200px; margin-bottom: 0px;' src='stim/fixation.png'><img src='stim/b/closeWater_pines_mountains.jpg'>","48","html-keyboard-response","17","15735","0.0-7.0-1.3","practice","ab","1","valid","6","a","win:stay","49","African_landscape.jpg","closeWater_pines_mountains.jpg","African_landscape.jpg","GUID","1322","11/11/2020","12","M","left","-4","1","0","0.05","not_winner.png","B","money"
"null","<img style='border: 5px solid #ffffff; padding-right:15px;' src='stim/b/African_landscape.jpg'><img style='width:150px; height:150px; padding-right: 50px; padding-left: 50px; margin-bottom: 25px;' src='stim/not_winner.png'><img style='border: 5px solid #808080;'src='stim/b/closeWater_pines_mountains.jpg'>","null","html-keyboard-response","18","16741","0.0-7.0-2.3","","","","","","","","","","","","","","","","","","","","","","","",""
"null","<img style='width:200px; height:200px; margin-left: 95px; margin-right: 95px;' src='stim/fixation.png'>","null","html-keyboard-response","19","17747","0.0-7.0-0.4","","","","","","","","","","","","","","","","","","","","","","","",""
"211.42499999950815","<img src='stim/b/African_landscape.jpg'><img style='width:200px; height:200px; margin-bottom: 0px;' src='stim/fixation.png'><img src='stim/b/closeWater_pines_mountains.jpg'>","48","html-keyboard-response","20","17963","0.0-7.0-1.4","practice","ab","1","valid","6","a","win:stay","49","African_landscape.jpg","closeWater_pines_mountains.jpg","African_landscape.jpg","GUID","1322","11/11/2020","12","M","left","-5","1","0","0.05","not_winner.png","B","money"
"null","<img style='border: 5px solid #ffffff; padding-right:15px;' src='stim/b/African_landscape.jpg'><img style='width:150px; height:150px; padding-right: 50px; padding-left: 50px; margin-bottom: 25px;' src='stim/not_winner.png'><img style='border: 5px solid #808080;'src='stim/b/closeWater_pines_mountains.jpg'>","null","html-keyboard-response","21","18969","0.0-7.0-2.4","","","","","","","","","","","","","","","","","","","","","","","",""
"null","<img style='width:200px; height:200px; margin-left: 95px; margin-right: 95px;' src='stim/fixation.png'>","null","html-keyboard-response","22","19974","0.0-7.0-0.5","","","","","","","","","","","","","","","","","","","","","","","",""
"214.64500000001863","<img src='stim/b/wheat_with_farmhouse.jpg'><img style='width:200px; height:200px; margin-bottom: 0px;' src='stim/fixation.png'><img src='stim/b/Trees_with_flowers.jpg'>","48","html-keyboard-response","23","20193","0.0-7.0-1.5","practice","ef","1","valid","6","e","avoid:lose","48","wheat_with_farmhouse.jpg","Trees_with_flowers.jpg","Trees_with_flowers.jpg","GUID","1322","11/11/2020","12","M","left","-6","1","1","0.05","keep_money.png","B","money"
"null","<img style='border: 5px solid #ffffff; padding-right:15px;' src='stim/b/wheat_with_farmhouse.jpg'><img style='width:150px; height:150px; padding-right: 50px; padding-left: 50px; margin-bottom: 25px;' src='stim/keep_money.png'><img style='border: 5px solid #808080;'src='stim/b/Trees_with_flowers.jpg'>","null","html-keyboard-response","24","21196","0.0-7.0-2.5","","","","","","","","","","","","","","","","","","","","","","","",""
"null","<img style='width:200px; height:200px; margin-left: 95px; margin-right: 95px;' src='stim/fixation.png'>","null","html-keyboard-response","25","22201","0.0-7.0-0.6","","","","","","","","","","","","","","","","","","","","","","","",""
"227.5549999994837","<img src='stim/b/Trees_with_flowers.jpg'><img style='width:200px; height:200px; margin-bottom: 0px;' src='stim/fixation.png'><img src='stim/b/wheat_with_farmhouse.jpg'>","48","html-keyboard-response","26","22433","0.0-7.0-1.6","practice","ef","1","valid","6","e","avoid:lose","49","Trees_with_flowers.jpg","wheat_with_farmhouse.jpg","Trees_with_flowers.jpg","GUID","1322","11/11/2020","12","M","left","-7","1","0","","loselose.bmp","B","money"
"null","<img style='border: 5px solid #ffffff; padding-right:15px;' src='stim/b/Trees_with_flowers.jpg'><img style='width:150px; height:150px; padding-right: 50px; padding-left: 50px; margin-bottom: 25px;' src='stim/loselose.bmp'><img style='border: 5px solid #808080;'src='stim/b/wheat_with_farmhouse.jpg'>","null","html-keyboard-response","27","23440","0.0-7.0-2.6","","","","","","","","","","","","","","","","","","","","","","","",""
"null","<img style='width:200px; height:200px; margin-left: 95px; margin-right: 95px;' src='stim/fixation.png'>","null","html-keyboard-response","28","24445","0.0-7.0-0.7","","","","","","","","","","","","","","","","","","","","","","","",""
"315.5850000002829","<img src='stim/b/closeWater_pines_mountains.jpg'><img style='width:200px; height:200px; margin-bottom: 0px;' src='stim/fixation.png'><img src='stim/b/African_landscape.jpg'>","48","html-keyboard-response","29","24765","0.0-7.0-1.7","practice","ab","1","valid","6","a","win:stay","48","closeWater_pines_mountains.jpg","African_landscape.jpg","African_landscape.jpg","GUID","1322","11/11/2020","12","M","left","-8","1","1","0.1","winwin.bmp","B","money"
"null","<img style='border: 5px solid #ffffff; padding-right:15px;' src='stim/b/closeWater_pines_mountains.jpg'><img style='width:150px; height:150px; padding-right: 50px; padding-left: 50px; margin-bottom: 25px;' src='stim/winwin.bmp'><img style='border: 5px solid #808080;'src='stim/b/African_landscape.jpg'>","null","html-keyboard-response","30","25769","0.0-7.0-2.7","","","","","","","","","","","","","","","","","","","","","","","",""
"null","<img style='width:200px; height:200px; margin-left: 95px; margin-right: 95px;' src='stim/fixation.png'>","null","html-keyboard-response","31","26777","0.0-7.0-0.8","","","","","","","","","","","","","","","","","","","","","","","",""
"301.1050000004616","<img src='stim/b/wheat_with_farmhouse.jpg'><img style='width:200px; height:200px; margin-bottom: 0px;' src='stim/fixation.png'><img src='stim/b/Trees_with_flowers.jpg'>","48","html-keyboard-response","32","27082","0.0-7.0-1.8","practice","ef","1","valid","6","e","avoid:lose","48","wheat_with_farmhouse.jpg","Trees_with_flowers.jpg","Trees_with_flowers.jpg","GUID","1322","11/11/2020","12","M","left","-9","1","1","0.1","keep_money.png","B","money"
"null","<img style='border: 5px solid #ffffff; padding-right:15px;' src='stim/b/wheat_with_farmhouse.jpg'><img style='width:150px; height:150px; padding-right: 50px; padding-left: 50px; margin-bottom: 25px;' src='stim/keep_money.png'><img style='border: 5px solid #808080;'src='stim/b/Trees_with_flowers.jpg'>","null","html-keyboard-response","33","28089","0.0-7.0-2.8","","","","","","","","","","","","","","","","","","","","","","","",""
"null","<img style='width:200px; height:200px; margin-left: 95px; margin-right: 95px;' src='stim/fixation.png'>","null","html-keyboard-response","34","29096","0.0-7.0-0.9","","","","","","","","","","","","","","","","","","","","","","","",""
"321.1350000001403","<img src='stim/b/closeWater_pines_mountains.jpg'><img style='width:200px; height:200px; margin-bottom: 0px;' src='stim/fixation.png'><img src='stim/b/African_landscape.jpg'>","48","html-keyboard-response","35","29421","0.0-7.0-1.9","practice","ab","1","valid","6","a","win:stay","48","closeWater_pines_mountains.jpg","African_landscape.jpg","African_landscape.jpg","GUID","1322","11/11/2020","12","M","left","-10","1","1","0.15000000000000002","winwin.bmp","B","money"
"null","<img style='border: 5px solid #ffffff; padding-right:15px;' src='stim/b/closeWater_pines_mountains.jpg'><img style='width:150px; height:150px; padding-right: 50px; padding-left: 50px; margin-bottom: 25px;' src='stim/winwin.bmp'><img style='border: 5px solid #808080;'src='stim/b/African_landscape.jpg'>","null","html-keyboard-response","36","30429","0.0-7.0-2.9","","","","","","","","","","","","","","","","","","","","","","","",""
"null","<img style='width:200px; height:200px; margin-left: 95px; margin-right: 95px;' src='stim/fixation.png'>","null","html-keyboard-response","37","31435","0.0-7.0-0.10","","","","","","","","","","","","","","","","","","","","","","","",""
"98.57999999985623","<img src='stim/b/Trees_with_flowers.jpg'><img style='width:200px; height:200px; margin-bottom: 0px;' src='stim/fixation.png'><img src='stim/b/wheat_with_farmhouse.jpg'>","48","html-keyboard-response","38","31537","0.0-7.0-1.10","practice","ef","1","valid","6","e","avoid:lose","49","Trees_with_flowers.jpg","wheat_with_farmhouse.jpg","Trees_with_flowers.jpg","GUID","1322","11/11/2020","12","M","left","-11","1","0","","loselose.bmp","B","money"
"null","<img style='border: 5px solid #ffffff; padding-right:15px;' src='stim/b/Trees_with_flowers.jpg'><img style='width:150px; height:150px; padding-right: 50px; padding-left: 50px; margin-bottom: 25px;' src='stim/loselose.bmp'><img style='border: 5px solid #808080;'src='stim/b/wheat_with_farmhouse.jpg'>","null","html-keyboard-response","39","32544","0.0-7.0-2.10","","","","","","","","","","","","","","","","","","","","","","","",""
"null","<img style='width:200px; height:200px; margin-left: 95px; margin-right: 95px;' src='stim/fixation.png'>","null","html-keyboard-response","40","33549","0.0-7.0-0.11","","","","","","","","","","","","","","","","","","","","","","","",""
"98.53000000020984","<img src='stim/b/closeWater_pines_mountains.jpg'><img style='width:200px; height:200px; margin-bottom: 0px;' src='stim/fixation.png'><img src='stim/b/African_landscape.jpg'>","49","html-keyboard-response","41","33651","0.0-7.0-1.11","practice","ab","1","valid","6","a","win:stay","48","closeWater_pines_mountains.jpg","African_landscape.jpg","African_landscape.jpg","GUID","1322","11/11/2020","12","M","left","-12","1","0","0.15000000000000002","not_winner.png","B","money"
"null","<img style='border: 5px solid #808080;' src='stim/b/closeWater_pines_mountains.jpg'><img style='width:150px; height:150px; padding-right: 50px; padding-left: 50px; margin-bottom: 25px;' src='stim/not_winner.png'><img style='border: 5px solid #ffffff;  padding-left:15px;' src='stim/b/African_landscape.jpg'>","null","html-keyboard-response","42","34656","0.0-7.0-2.11","","","","","","","","","","","","","","","","","","","","","","","",""
"1213.49999999984","<p>Great!</p> <p>Press the spacebar to continue.</p>","32","html-keyboard-response","43","36372","0.0-8.0","","","","","","","","","","","","","","","","","","","","","","","",""
"3937.9549999994197","<p>Now you will see some more pictures.</p><p>Do as before by pressing the 1 to choose the picture on the left, and pressing the 0 to choose the picture on the right.</p><p>Press the spacebar to continue.</p>","32","html-keyboard-response","44","40311","0.0-9.0","","","","","","","","","","","","","","","","","","","","","","","",""
"1215.0350000001708","<h3 style=""color:red;"">For the picture pairs where you can win money:</h3><p>You will not win every time you choose the ""best"" picture;</p><p>However, one picture gets rewarded much more often than the other picture.</p><h3 style=""color:red;"">For the picture pairs where the best you can do is keep your money:</h3><p>You will not be able to keep your money every time you choose the ""best"" picture;</p><p>However, one picture allows you to keep your money much more often than the other picture.</p><p>Press the spacebar to continue.</p>","32","html-keyboard-response","45","41527","0.0-10.0","","","","","","","","","","","","","","","","","","","","","","","",""
"391.22500000030414","<p>There is no ABSOLUTE right answer for any pair of pictures, but some pictures have a higher chance of either winning you some money or preventing you from losing money.</p><p>Try to pick the picture that you think is best.<p><p>Once you decide which picture in a pair of pictures is better, stick with it for the rest of the experiment (unless you determine that you were initially wrong about the selection).</p><p>Press the spacebar when you are ready to begin.</p>","32","html-keyboard-response","46","41919","0.0-11.0","","","","","","","","","","","","","","","","","","","","","","","",""
"null","<img style='width:200px; height:200px; margin-left: 95px; margin-right: 95px;' src='stim/fixation.png'>","null","html-keyboard-response","47","42421","0.0-12.0-0.0","","","","","","","","","","","","","","","","","","","","","","","",""
"614.3549999997049","<img src='stim/b/2822landscape.jpg'><img style='width:200px; height:200px; margin-bottom: 0px;' src='stim/fixation.png'><img src='stim/b/3d-landscape-background-10.jpg'>","48","html-keyboard-response","48","43040","0.0-12.0-1.0","training","ab","0.9","valid","10","a","win:stay","48","2822landscape.jpg","3d-landscape-background-10.jpg","3d-landscape-background-10.jpg","GUID","1322","11/11/2020","12","M","left","1","0","1","0.2","winwin.bmp","B","money"
"null","<img style='border: 5px solid #ffffff; padding-right:15px;' src='stim/b/2822landscape.jpg'><img style='width:150px; height:150px; padding-right: 50px; padding-left: 50px; margin-bottom: 25px;' src='stim/winwin.bmp'><img style='border: 5px solid #808080;'src='stim/b/3d-landscape-background-10.jpg'>","null","html-keyboard-response","49","44045","0.0-12.0-2.0","","","","","","","","","","","","","","","","","","","","","","","",""
"null","<img style='width:200px; height:200px; margin-left: 95px; margin-right: 95px;' src='stim/fixation.png'>","null","html-keyboard-response","50","45050","0.0-12.0-0.1","","","","","","","","","","","","","","","","","","","","","","","",""
"248.26500000017404","<img src='stim/b/water_fall_images.jpg'><img style='width:200px; height:200px; margin-bottom: 0px;' src='stim/fixation.png'><img src='stim/b/water_pines_distantMountains.jpg'>","48","html-keyboard-response","51","45302","0.0-12.0-1.1","training","ef","0.9","valid","10","e","avoid:lose","49","water_fall_images.jpg","water_pines_distantMountains.jpg","water_fall_images.jpg","GUID","1322","11/11/2020","12","M","left","2","0","0","","loselose.bmp","B","money"
"null","<img style='border: 5px solid #ffffff; padding-right:15px;' src='stim/b/water_fall_images.jpg'><img style='width:150px; height:150px; padding-right: 50px; padding-left: 50px; margin-bottom: 25px;' src='stim/loselose.bmp'><img style='border: 5px solid #808080;'src='stim/b/water_pines_distantMountains.jpg'>","null","html-keyboard-response","52","46308","0.0-12.0-2.1","","","","","","","","","","","","","","","","","","","","","","","",""
"null","<img style='width:200px; height:200px; margin-left: 95px; margin-right: 95px;' src='stim/fixation.png'>","null","html-keyboard-response","53","47315","0.0-12.0-0.2","","","","","","","","","","","","","","","","","","","","","","","",""
"115.42000000008557","<img src='stim/b/waterfall_waterBelow.jpg'><img style='width:200px; height:200px; margin-bottom: 0px;' src='stim/fixation.png'><img src='stim/b/water_pines_snowy_moutain.jpg'>","48","html-keyboard-response","54","47434","0.0-12.0-1.2","training","gh","0.8","valid","10","g","avoid:lose","48","waterfall_waterBelow.jpg","water_pines_snowy_moutain.jpg","water_pines_snowy_moutain.jpg","GUID","1322","11/11/2020","12","M","left","3","0","1","0.2","keep_money.png","B","money"
"null","<img style='border: 5px solid #ffffff; padding-right:15px;' src='stim/b/waterfall_waterBelow.jpg'><img style='width:150px; height:150px; padding-right: 50px; padding-left: 50px; margin-bottom: 25px;' src='stim/keep_money.png'><img style='border: 5px solid #808080;'src='stim/b/water_pines_snowy_moutain.jpg'>","null","html-keyboard-response","55","48437","0.0-12.0-2.2","","","","","","","","","","","","","","","","","","","","","","","",""
"null","<img style='width:200px; height:200px; margin-left: 95px; margin-right: 95px;' src='stim/fixation.png'>","null","html-keyboard-response","56","49440","0.0-12.0-0.3","","","","","","","","","","","","","","","","","","","","","","","",""
"490.4100000003382","<img src='stim/b/orangey_field.jpg'><img style='width:200px; height:200px; margin-bottom: 0px;' src='stim/fixation.png'><img src='stim/b/lsingeltree_tallergrass_clouds.jpg'>","48","html-keyboard-response","57","49934","0.0-12.0-1.3","training","cd","0.8","invalid","10","c","win:stay","48","orangey_field.jpg","lsingeltree_tallergrass_clouds.jpg","lsingeltree_tallergrass_clouds.jpg","GUID","1322","11/11/2020","12","M","left","4","0","1","0.2","not_winner.png","B","money"
"null","<img style='border: 5px solid #ffffff; padding-right:15px;' src='stim/b/orangey_field.jpg'><img style='width:150px; height:150px; padding-right: 50px; padding-left: 50px; margin-bottom: 25px;' src='stim/not_winner.png'><img style='border: 5px solid #808080;'src='stim/b/lsingeltree_tallergrass_clouds.jpg'>","null","html-keyboard-response","58","50941","0.0-12.0-2.3","","","","","","","","","","","","","","","","","","","","","","","",""
"null","<img style='width:200px; height:200px; margin-left: 95px; margin-right: 95px;' src='stim/fixation.png'>","null","html-keyboard-response","59","51947","0.0-12.0-0.4","","","","","","","","","","","","","","","","","","","","","","","",""
"458.77999999993335","<img src='stim/b/waterfall_waterBelow.jpg'><img style='width:200px; height:200px; margin-bottom: 0px;' src='stim/fixation.png'><img src='stim/b/water_pines_snowy_moutain.jpg'>","48","html-keyboard-response","60","52410","0.0-12.0-1.4","training","gh","0.8","invalid","10","g","avoid:lose","48","waterfall_waterBelow.jpg","water_pines_snowy_moutain.jpg","water_pines_snowy_moutain.jpg","GUID","1322","11/11/2020","12","M","left","5","0","1","0.15000000000000002","loselose.bmp","B","money"
"null","<img style='border: 5px solid #ffffff; padding-right:15px;' src='stim/b/waterfall_waterBelow.jpg'><img style='width:150px; height:150px; padding-right: 50px; padding-left: 50px; margin-bottom: 25px;' src='stim/loselose.bmp'><img style='border: 5px solid #808080;'src='stim/b/water_pines_snowy_moutain.jpg'>","null","html-keyboard-response","61","53419","0.0-12.0-2.4","","","","","","","","","","","","","","","","","","","","","","","",""
"null","<img style='width:200px; height:200px; margin-left: 95px; margin-right: 95px;' src='stim/fixation.png'>","null","html-keyboard-response","62","54421","0.0-12.0-0.5","","","","","","","","","","","","","","","","","","","","","","","",""
"243.1799999994837","<img src='stim/b/water_pines_distantMountains.jpg'><img style='width:200px; height:200px; margin-bottom: 0px;' src='stim/fixation.png'><img src='stim/b/water_fall_images.jpg'>","48","html-keyboard-response","63","54670","0.0-12.0-1.5","training","ef","0.9","valid","10","e","avoid:lose","48","water_pines_distantMountains.jpg","water_fall_images.jpg","water_fall_images.jpg","GUID","1322","11/11/2020","12","M","left","6","0","1","0.15000000000000002","keep_money.png","B","money"
"null","<img style='border: 5px solid #ffffff; padding-right:15px;' src='stim/b/water_pines_distantMountains.jpg'><img style='width:150px; height:150px; padding-right: 50px; padding-left: 50px; margin-bottom: 25px;' src='stim/keep_money.png'><img style='border: 5px solid #808080;'src='stim/b/water_fall_images.jpg'>","null","html-keyboard-response","64","55678","0.0-12.0-2.5","","","","","","","","","","","","","","","","","","","","","","","",""
"null","<img style='width:200px; height:200px; margin-left: 95px; margin-right: 95px;' src='stim/fixation.png'>","null","html-keyboard-response","65","56683","0.0-12.0-0.6","","","","","","","","","","","","","","","","","","","","","","","",""
"182.80999999933556","<img src='stim/b/orangey_field.jpg'><img style='width:200px; height:200px; margin-bottom: 0px;' src='stim/fixation.png'><img src='stim/b/lsingeltree_tallergrass_clouds.jpg'>","48","html-keyboard-response","66","56871","0.0-12.0-1.6","training","cd","0.8","valid","10","c","win:stay","48","orangey_field.jpg","lsingeltree_tallergrass_clouds.jpg","lsingeltree_tallergrass_clouds.jpg","GUID","1322","11/11/2020","12","M","left","7","0","1","0.2","winwin.bmp","B","money"
"null","<img style='border: 5px solid #ffffff; padding-right:15px;' src='stim/b/orangey_field.jpg'><img style='width:150px; height:150px; padding-right: 50px; padding-left: 50px; margin-bottom: 25px;' src='stim/winwin.bmp'><img style='border: 5px solid #808080;'src='stim/b/lsingeltree_tallergrass_clouds.jpg'>","null","html-keyboard-response","67","57880","0.0-12.0-2.6","","","","","","","","","","","","","","","","","","","","","","","",""
"null","<img style='width:200px; height:200px; margin-left: 95px; margin-right: 95px;' src='stim/fixation.png'>","null","html-keyboard-response","68","58886","0.0-12.0-0.7","","","","","","","","","","","","","","","","","","","","","","","",""
"221.1950000000652","<img src='stim/b/2822landscape.jpg'><img style='width:200px; height:200px; margin-bottom: 0px;' src='stim/fixation.png'><img src='stim/b/3d-landscape-background-10.jpg'>","48","html-keyboard-response","69","59114","0.0-12.0-1.7","training","ab","0.9","valid","10","a","win:stay","48","2822landscape.jpg","3d-landscape-background-10.jpg","3d-landscape-background-10.jpg","GUID","1322","11/11/2020","12","M","left","8","0","1","0.25","winwin.bmp","B","money"
"null","<img style='border: 5px solid #ffffff; padding-right:15px;' src='stim/b/2822landscape.jpg'><img style='width:150px; height:150px; padding-right: 50px; padding-left: 50px; margin-bottom: 25px;' src='stim/winwin.bmp'><img style='border: 5px solid #808080;'src='stim/b/3d-landscape-background-10.jpg'>","null","html-keyboard-response","70","60119","0.0-12.0-2.7","","","","","","","","","","","","","","","","","","","","","","","",""
"null","<img style='width:200px; height:200px; margin-left: 95px; margin-right: 95px;' src='stim/fixation.png'>","null","html-keyboard-response","71","61126","0.0-12.0-0.8","","","","","","","","","","","","","","","","","","","","","","","",""
"231.0799999995652","<img src='stim/b/lsingeltree_tallergrass_clouds.jpg'><img style='width:200px; height:200px; margin-bottom: 0px;' src='stim/fixation.png'><img src='stim/b/orangey_field.jpg'>","48","html-keyboard-response","72","61359","0.0-12.0-1.8","training","cd","0.8","valid","10","c","win:stay","49","lsingeltree_tallergrass_clouds.jpg","orangey_field.jpg","lsingeltree_tallergrass_clouds.jpg","GUID","1322","11/11/2020","12","M","left","9","0","0","0.25","not_winner.png","B","money"
"null","<img style='border: 5px solid #ffffff; padding-right:15px;' src='stim/b/lsingeltree_tallergrass_clouds.jpg'><img style='width:150px; height:150px; padding-right: 50px; padding-left: 50px; margin-bottom: 25px;' src='stim/not_winner.png'><img style='border: 5px solid #808080;'src='stim/b/orangey_field.jpg'>","null","html-keyboard-response","73","62363","0.0-12.0-2.8","","","","","","","","","","","","","","","","","","","","","","","",""
"null","<img style='width:200px; height:200px; margin-left: 95px; margin-right: 95px;' src='stim/fixation.png'>","null","html-keyboard-response","74","63369","0.0-12.0-0.9","","","","","","","","","","","","","","","","","","","","","","","",""
"249.44500000038533","<img src='stim/b/2822landscape.jpg'><img style='width:200px; height:200px; margin-bottom: 0px;' src='stim/fixation.png'><img src='stim/b/3d-landscape-background-10.jpg'>","48","html-keyboard-response","75","63623","0.0-12.0-1.9","training","ab","0.9","valid","10","a","win:stay","48","2822landscape.jpg","3d-landscape-background-10.jpg","3d-landscape-background-10.jpg","GUID","1322","11/11/2020","12","M","left","10","0","1","0.3","winwin.bmp","B","money"
"null","<img style='border: 5px solid #ffffff; padding-right:15px;' src='stim/b/2822landscape.jpg'><img style='width:150px; height:150px; padding-right: 50px; padding-left: 50px; margin-bottom: 25px;' src='stim/winwin.bmp'><img style='border: 5px solid #808080;'src='stim/b/3d-landscape-background-10.jpg'>","null","html-keyboard-response","76","64629","0.0-12.0-2.9","","","","","","","","","","","","","","","","","","","","","","","",""
"null","<img style='width:200px; height:200px; margin-left: 95px; margin-right: 95px;' src='stim/fixation.png'>","null","html-keyboard-response","77","65633","0.0-12.0-0.10","","","","","","","","","","","","","","","","","","","","","","","",""
"246.16499999955704","<img src='stim/b/waterfall_waterBelow.jpg'><img style='width:200px; height:200px; margin-bottom: 0px;' src='stim/fixation.png'><img src='stim/b/water_pines_snowy_moutain.jpg'>","48","html-keyboard-response","78","65883","0.0-12.0-1.10","training","gh","0.8","valid","10","g","avoid:lose","48","waterfall_waterBelow.jpg","water_pines_snowy_moutain.jpg","water_pines_snowy_moutain.jpg","GUID","1322","11/11/2020","12","M","left","11","0","1","0.3","keep_money.png","B","money"
"null","<img style='border: 5px solid #ffffff; padding-right:15px;' src='stim/b/waterfall_waterBelow.jpg'><img style='width:150px; height:150px; padding-right: 50px; padding-left: 50px; margin-bottom: 25px;' src='stim/keep_money.png'><img style='border: 5px solid #808080;'src='stim/b/water_pines_snowy_moutain.jpg'>","null","html-keyboard-response","79","66890","0.0-12.0-2.10","","","","","","","","","","","","","","","","","","","","","","","",""
"null","<img style='width:200px; height:200px; margin-left: 95px; margin-right: 95px;' src='stim/fixation.png'>","null","html-keyboard-response","80","67896","0.0-12.0-0.11","","","","","","","","","","","","","","","","","","","","","","","",""
"131.1749999995227","<img src='stim/b/water_fall_images.jpg'><img style='width:200px; height:200px; margin-bottom: 0px;' src='stim/fixation.png'><img src='stim/b/water_pines_distantMountains.jpg'>","48","html-keyboard-response","81","68032","0.0-12.0-1.11","training","ef","0.9","valid","10","e","avoid:lose","49","water_fall_images.jpg","water_pines_distantMountains.jpg","water_fall_images.jpg","GUID","1322","11/11/2020","12","M","left","12","0","0","","loselose.bmp","B","money"
"null","<img style='border: 5px solid #ffffff; padding-right:15px;' src='stim/b/water_fall_images.jpg'><img style='width:150px; height:150px; padding-right: 50px; padding-left: 50px; margin-bottom: 25px;' src='stim/loselose.bmp'><img style='border: 5px solid #808080;'src='stim/b/water_pines_distantMountains.jpg'>","null","html-keyboard-response","82","69039","0.0-12.0-2.11","","","","","","","","","","","","","","","","","","","","","","","",""
"null","<img style='width:200px; height:200px; margin-left: 95px; margin-right: 95px;' src='stim/fixation.png'>","null","html-keyboard-response","83","70044","0.0-12.0-0.12","","","","","","","","","","","","","","","","","","","","","","","",""
"220.10000000045693","<img src='stim/b/water_pines_distantMountains.jpg'><img style='width:200px; height:200px; margin-bottom: 0px;' src='stim/fixation.png'><img src='stim/b/water_fall_images.jpg'>","49","html-keyboard-response","84","70268","0.0-12.0-1.12","training","ef","0.9","valid","10","e","avoid:lose","48","water_pines_distantMountains.jpg","water_fall_images.jpg","water_fall_images.jpg","GUID","1322","11/11/2020","12","M","left","13","0","0","","loselose.bmp","B","money"
"null","<img style='border: 5px solid #808080;' src='stim/b/water_pines_distantMountains.jpg'><img style='width:150px; height:150px; padding-right: 50px; padding-left: 50px; margin-bottom: 25px;' src='stim/loselose.bmp'><img style='border: 5px solid #ffffff;  padding-left:15px;' src='stim/b/water_fall_images.jpg'>","null","html-keyboard-response","85","71273","0.0-12.0-2.12","","","","","","","","","","","","","","","","","","","","","","","",""
"null","<img style='width:200px; height:200px; margin-left: 95px; margin-right: 95px;' src='stim/fixation.png'>","null","html-keyboard-response","86","72280","0.0-12.0-0.13","","","","","","","","","","","","","","","","","","","","","","","",""
"349.8250000002445","<img src='stim/b/lsingeltree_tallergrass_clouds.jpg'><img style='width:200px; height:200px; margin-bottom: 0px;' src='stim/fixation.png'><img src='stim/b/orangey_field.jpg'>","49","html-keyboard-response","87","72635","0.0-12.0-1.13","training","cd","0.8","invalid","10","c","win:stay","49","lsingeltree_tallergrass_clouds.jpg","orangey_field.jpg","lsingeltree_tallergrass_clouds.jpg","GUID","1322","11/11/2020","12","M","left","14","0","1","0.3","not_winner.png","B","money"
"null","<img style='border: 5px solid #808080;' src='stim/b/lsingeltree_tallergrass_clouds.jpg'><img style='width:150px; height:150px; padding-right: 50px; padding-left: 50px; margin-bottom: 25px;' src='stim/not_winner.png'><img style='border: 5px solid #ffffff;  padding-left:15px;' src='stim/b/orangey_field.jpg'>","null","html-keyboard-response","88","73641","0.0-12.0-2.13","","","","","","","","","","","","","","","","","","","","","","","",""
"null","<img style='width:200px; height:200px; margin-left: 95px; margin-right: 95px;' src='stim/fixation.png'>","null","html-keyboard-response","89","74647","0.0-12.0-0.14","","","","","","","","","","","","","","","","","","","","","","","",""
"324.00000000052387","<img src='stim/b/3d-landscape-background-10.jpg'><img style='width:200px; height:200px; margin-bottom: 0px;' src='stim/fixation.png'><img src='stim/b/2822landscape.jpg'>","49","html-keyboard-response","90","74976","0.0-12.0-1.14","training","ab","0.9","invalid","10","a","win:stay","49","3d-landscape-background-10.jpg","2822landscape.jpg","3d-landscape-background-10.jpg","GUID","1322","11/11/2020","12","M","left","15","0","1","0.3","not_winner.png","B","money"
"null","<img style='border: 5px solid #808080;' src='stim/b/3d-landscape-background-10.jpg'><img style='width:150px; height:150px; padding-right: 50px; padding-left: 50px; margin-bottom: 25px;' src='stim/not_winner.png'><img style='border: 5px solid #ffffff;  padding-left:15px;' src='stim/b/2822landscape.jpg'>","null","html-keyboard-response","91","75984","0.0-12.0-2.14","","","","","","","","","","","","","","","","","","","","","","","",""
"null","<img style='width:200px; height:200px; margin-left: 95px; margin-right: 95px;' src='stim/fixation.png'>","null","html-keyboard-response","92","76986","0.0-12.0-0.15","","","","","","","","","","","","","","","","","","","","","","","",""
"470.53500000038184","<img src='stim/b/waterfall_waterBelow.jpg'><img style='width:200px; height:200px; margin-bottom: 0px;' src='stim/fixation.png'><img src='stim/b/water_pines_snowy_moutain.jpg'>","49","html-keyboard-response","93","77461","0.0-12.0-1.15","training","gh","0.8","valid","10","g","avoid:lose","48","waterfall_waterBelow.jpg","water_pines_snowy_moutain.jpg","water_pines_snowy_moutain.jpg","GUID","1322","11/11/2020","12","M","left","16","0","0","","loselose.bmp","B","money"
"null","<img style='border: 5px solid #808080;' src='stim/b/waterfall_waterBelow.jpg'><img style='width:150px; height:150px; padding-right: 50px; padding-left: 50px; margin-bottom: 25px;' src='stim/loselose.bmp'><img style='border: 5px solid #ffffff;  padding-left:15px;' src='stim/b/water_pines_snowy_moutain.jpg'>","null","html-keyboard-response","94","78469","0.0-12.0-2.15","","","","","","","","","","","","","","","","","","","","","","","",""
"null","<img style='width:200px; height:200px; margin-left: 95px; margin-right: 95px;' src='stim/fixation.png'>","null","html-keyboard-response","95","79472","0.0-12.0-0.16","","","","","","","","","","","","","","","","","","","","","","","",""
"232.8749999996944","<img src='stim/b/water_pines_snowy_moutain.jpg'><img style='width:200px; height:200px; margin-bottom: 0px;' src='stim/fixation.png'><img src='stim/b/waterfall_waterBelow.jpg'>","49","html-keyboard-response","96","79709","0.0-12.0-1.16","training","gh","0.8","valid","10","g","avoid:lose","49","waterfall_waterBelow.jpg","water_pines_snowy_moutain.jpg","water_pines_snowy_moutain.jpg","GUID","1322","11/11/2020","12","M","left","17","0","1","0.3","keep_money.png","B","money"
"null","<img style='border: 5px solid #808080;' src='stim/b/water_pines_snowy_moutain.jpg'><img style='width:150px; height:150px; padding-right: 50px; padding-left: 50px; margin-bottom: 25px;' src='stim/keep_money.png'><img style='border: 5px solid #ffffff;  padding-left:15px;' src='stim/b/waterfall_waterBelow.jpg'>","null","html-keyboard-response","97","80716","0.0-12.0-2.16","","","","","","","","","","","","","","","","","","","","","","","",""
"null","<img style='width:200px; height:200px; margin-left: 95px; margin-right: 95px;' src='stim/fixation.png'>","null","html-keyboard-response","98","81723","0.0-12.0-0.17","","","","","","","","","","","","","","","","","","","","","","","",""
"297.65000000043074","<img src='stim/b/3d-landscape-background-10.jpg'><img style='width:200px; height:200px; margin-bottom: 0px;' src='stim/fixation.png'><img src='stim/b/2822landscape.jpg'>","49","html-keyboard-response","99","82024","0.0-12.0-1.17","training","ab","0.9","valid","10","a","win:stay","49","3d-landscape-background-10.jpg","2822landscape.jpg","3d-landscape-background-10.jpg","GUID","1322","11/11/2020","12","M","left","18","0","1","0.35","winwin.bmp","B","money"
"null","<img style='border: 5px solid #808080;' src='stim/b/3d-landscape-background-10.jpg'><img style='width:150px; height:150px; padding-right: 50px; padding-left: 50px; margin-bottom: 25px;' src='stim/winwin.bmp'><img style='border: 5px solid #ffffff;  padding-left:15px;' src='stim/b/2822landscape.jpg'>","null","html-keyboard-response","100","83029","0.0-12.0-2.17","","","","","","","","","","","","","","","","","","","","","","","",""
"null","<img style='width:200px; height:200px; margin-left: 95px; margin-right: 95px;' src='stim/fixation.png'>","null","html-keyboard-response","101","84033","0.0-12.0-0.18","","","","","","","","","","","","","","","","","","","","","","","",""
"421.7549999993935","<img src='stim/b/orangey_field.jpg'><img style='width:200px; height:200px; margin-bottom: 0px;' src='stim/fixation.png'><img src='stim/b/lsingeltree_tallergrass_clouds.jpg'>","49","html-keyboard-response","102","84459","0.0-12.0-1.18","training","cd","0.8","valid","10","c","win:stay","48","orangey_field.jpg","lsingeltree_tallergrass_clouds.jpg","lsingeltree_tallergrass_clouds.jpg","GUID","1322","11/11/2020","12","M","left","19","0","0","0.35","not_winner.png","B","money"
"null","<img style='border: 5px solid #808080;' src='stim/b/orangey_field.jpg'><img style='width:150px; height:150px; padding-right: 50px; padding-left: 50px; margin-bottom: 25px;' src='stim/not_winner.png'><img style='border: 5px solid #ffffff;  padding-left:15px;' src='stim/b/lsingeltree_tallergrass_clouds.jpg'>","null","html-keyboard-response","103","85466","0.0-12.0-2.18","","","","","","","","","","","","","","","","","","","","","","","",""
"null","<img style='width:200px; height:200px; margin-left: 95px; margin-right: 95px;' src='stim/fixation.png'>","null","html-keyboard-response","104","86470","0.0-12.0-0.19","","","","","","","","","","","","","","","","","","","","","","","",""
"337.4100000000908","<img src='stim/b/water_pines_distantMountains.jpg'><img style='width:200px; height:200px; margin-bottom: 0px;' src='stim/fixation.png'><img src='stim/b/water_fall_images.jpg'>","49","html-keyboard-response","105","86813","0.0-12.0-1.19","training","ef","0.9","valid","10","e","avoid:lose","48","water_pines_distantMountains.jpg","water_fall_images.jpg","water_fall_images.jpg","GUID","1322","11/11/2020","12","M","left","20","0","0","","loselose.bmp","B","money"
"null","<img style='border: 5px solid #808080;' src='stim/b/water_pines_distantMountains.jpg'><img style='width:150px; height:150px; padding-right: 50px; padding-left: 50px; margin-bottom: 25px;' src='stim/loselose.bmp'><img style='border: 5px solid #ffffff;  padding-left:15px;' src='stim/b/water_fall_images.jpg'>","null","html-keyboard-response","106","87819","0.0-12.0-2.19","","","","","","","","","","","","","","","","","","","","","","","",""
"null","<img style='width:200px; height:200px; margin-left: 95px; margin-right: 95px;' src='stim/fixation.png'>","null","html-keyboard-response","107","88825","0.0-12.0-0.20","","","","","","","","","","","","","","","","","","","","","","","",""
"391.2899999995716","<img src='stim/b/2822landscape.jpg'><img style='width:200px; height:200px; margin-bottom: 0px;' src='stim/fixation.png'><img src='stim/b/3d-landscape-background-10.jpg'>","49","html-keyboard-response","108","89221","0.0-12.0-1.20","training","ab","0.9","valid","10","a","win:stay","48","2822landscape.jpg","3d-landscape-background-10.jpg","3d-landscape-background-10.jpg","GUID","1322","11/11/2020","12","M","left","21","0","0","0.35","not_winner.png","B","money"
"null","<img style='border: 5px solid #808080;' src='stim/b/2822landscape.jpg'><img style='width:150px; height:150px; padding-right: 50px; padding-left: 50px; margin-bottom: 25px;' src='stim/not_winner.png'><img style='border: 5px solid #ffffff;  padding-left:15px;' src='stim/b/3d-landscape-background-10.jpg'>","null","html-keyboard-response","109","90228","0.0-12.0-2.20","","","","","","","","","","","","","","","","","","","","","","","",""
"null","<img style='width:200px; height:200px; margin-left: 95px; margin-right: 95px;' src='stim/fixation.png'>","null","html-keyboard-response","110","91235","0.0-12.0-0.21","","","","","","","","","","","","","","","","","","","","","","","",""
"167.07500000028813","<img src='stim/b/water_fall_images.jpg'><img style='width:200px; height:200px; margin-bottom: 0px;' src='stim/fixation.png'><img src='stim/b/water_pines_distantMountains.jpg'>","49","html-keyboard-response","111","91407","0.0-12.0-1.21","training","ef","0.9","valid","10","e","avoid:lose","49","water_fall_images.jpg","water_pines_distantMountains.jpg","water_fall_images.jpg","GUID","1322","11/11/2020","12","M","left","22","0","1","0.35","keep_money.png","B","money"
"null","<img style='border: 5px solid #808080;' src='stim/b/water_fall_images.jpg'><img style='width:150px; height:150px; padding-right: 50px; padding-left: 50px; margin-bottom: 25px;' src='stim/keep_money.png'><img style='border: 5px solid #ffffff;  padding-left:15px;' src='stim/b/water_pines_distantMountains.jpg'>","null","html-keyboard-response","112","92415","0.0-12.0-2.21","","","","","","","","","","","","","","","","","","","","","","","",""
"null","<img style='width:200px; height:200px; margin-left: 95px; margin-right: 95px;' src='stim/fixation.png'>","null","html-keyboard-response","113","93422","0.0-12.0-0.22","","","","","","","","","","","","","","","","","","","","","","","",""
"191.78499999998894","<img src='stim/b/waterfall_waterBelow.jpg'><img style='width:200px; height:200px; margin-bottom: 0px;' src='stim/fixation.png'><img src='stim/b/water_pines_snowy_moutain.jpg'>","49","html-keyboard-response","114","93618","0.0-12.0-1.22","training","gh","0.8","valid","10","g","avoid:lose","48","waterfall_waterBelow.jpg","water_pines_snowy_moutain.jpg","water_pines_snowy_moutain.jpg","GUID","1322","11/11/2020","12","M","left","23","0","0","","loselose.bmp","B","money"
"null","<img style='border: 5px solid #808080;' src='stim/b/waterfall_waterBelow.jpg'><img style='width:150px; height:150px; padding-right: 50px; padding-left: 50px; margin-bottom: 25px;' src='stim/loselose.bmp'><img style='border: 5px solid #ffffff;  padding-left:15px;' src='stim/b/water_pines_snowy_moutain.jpg'>","null","html-keyboard-response","115","94622","0.0-12.0-2.22","","","","","","","","","","","","","","","","","","","","","","","",""
"null","<img style='width:200px; height:200px; margin-left: 95px; margin-right: 95px;' src='stim/fixation.png'>","null","html-keyboard-response","116","95628","0.0-12.0-0.23","","","","","","","","","","","","","","","","","","","","","","","",""
"328.85499999974854","<img src='stim/b/lsingeltree_tallergrass_clouds.jpg'><img style='width:200px; height:200px; margin-bottom: 0px;' src='stim/fixation.png'><img src='stim/b/orangey_field.jpg'>","49","html-keyboard-response","117","95962","0.0-12.0-1.23","training","cd","0.8","valid","10","c","win:stay","49","lsingeltree_tallergrass_clouds.jpg","orangey_field.jpg","lsingeltree_tallergrass_clouds.jpg","GUID","1322","11/11/2020","12","M","left","24","0","1","0.39999999999999997","winwin.bmp","B","money"
"null","<img style='border: 5px solid #808080;' src='stim/b/lsingeltree_tallergrass_clouds.jpg'><img style='width:150px; height:150px; padding-right: 50px; padding-left: 50px; margin-bottom: 25px;' src='stim/winwin.bmp'><img style='border: 5px solid #ffffff;  padding-left:15px;' src='stim/b/orangey_field.jpg'>","null","html-keyboard-response","118","96970","0.0-12.0-2.23","","","","","","","","","","","","","","","","","","","","","","","",""
"null","<img style='width:200px; height:200px; margin-left: 95px; margin-right: 95px;' src='stim/fixation.png'>","null","html-keyboard-response","119","97977","0.0-12.0-0.24","","","","","","","","","","","","","","","","","","","","","","","",""
"318.1800000002113","<img src='stim/b/lsingeltree_tallergrass_clouds.jpg'><img style='width:200px; height:200px; margin-bottom: 0px;' src='stim/fixation.png'><img src='stim/b/orangey_field.jpg'>","49","html-keyboard-response","120","98299","0.0-12.0-1.24","training","cd","0.8","valid","10","c","win:stay","49","lsingeltree_tallergrass_clouds.jpg","orangey_field.jpg","lsingeltree_tallergrass_clouds.jpg","GUID","1322","11/11/2020","12","M","left","25","0","1","0.44999999999999996","winwin.bmp","B","money"
"null","<img style='border: 5px solid #808080;' src='stim/b/lsingeltree_tallergrass_clouds.jpg'><img style='width:150px; height:150px; padding-right: 50px; padding-left: 50px; margin-bottom: 25px;' src='stim/winwin.bmp'><img style='border: 5px solid #ffffff;  padding-left:15px;' src='stim/b/orangey_field.jpg'>","null","html-keyboard-response","121","99308","0.0-12.0-2.24","","","","","","","","","","","","","","","","","","","","","","","",""
"null","<img style='width:200px; height:200px; margin-left: 95px; margin-right: 95px;' src='stim/fixation.png'>","null","html-keyboard-response","122","100313","0.0-12.0-0.25","","","","","","","","","","","","","","","","","","","","","","","",""
"232.4099999996106","<img src='stim/b/water_fall_images.jpg'><img style='width:200px; height:200px; margin-bottom: 0px;' src='stim/fixation.png'><img src='stim/b/water_pines_distantMountains.jpg'>","49","html-keyboard-response","123","100550","0.0-12.0-1.25","training","ef","0.9","valid","10","e","avoid:lose","49","water_fall_images.jpg","water_pines_distantMountains.jpg","water_fall_images.jpg","GUID","1322","11/11/2020","12","M","left","26","0","1","0.44999999999999996","keep_money.png","B","money"
"null","<img style='border: 5px solid #808080;' src='stim/b/water_fall_images.jpg'><img style='width:150px; height:150px; padding-right: 50px; padding-left: 50px; margin-bottom: 25px;' src='stim/keep_money.png'><img style='border: 5px solid #ffffff;  padding-left:15px;' src='stim/b/water_pines_distantMountains.jpg'>","null","html-keyboard-response","124","101559","0.0-12.0-2.25","","","","","","","","","","","","","","","","","","","","","","","",""
"null","<img style='width:200px; height:200px; margin-left: 95px; margin-right: 95px;' src='stim/fixation.png'>","null","html-keyboard-response","125","102564","0.0-12.0-0.26","","","","","","","","","","","","","","","","","","","","","","","",""
"189.39499999943655","<img src='stim/b/3d-landscape-background-10.jpg'><img style='width:200px; height:200px; margin-bottom: 0px;' src='stim/fixation.png'><img src='stim/b/2822landscape.jpg'>","49","html-keyboard-response","126","102758","0.0-12.0-1.26","training","ab","0.9","valid","10","a","win:stay","49","3d-landscape-background-10.jpg","2822landscape.jpg","3d-landscape-background-10.jpg","GUID","1322","11/11/2020","12","M","left","27","0","1","0.49999999999999994","winwin.bmp","B","money"
"null","<img style='border: 5px solid #808080;' src='stim/b/3d-landscape-background-10.jpg'><img style='width:150px; height:150px; padding-right: 50px; padding-left: 50px; margin-bottom: 25px;' src='stim/winwin.bmp'><img style='border: 5px solid #ffffff;  padding-left:15px;' src='stim/b/2822landscape.jpg'>","null","html-keyboard-response","127","103762","0.0-12.0-2.26","","","","","","","","","","","","","","","","","","","","","","","",""
"null","<img style='width:200px; height:200px; margin-left: 95px; margin-right: 95px;' src='stim/fixation.png'>","null","html-keyboard-response","128","104766","0.0-12.0-0.27","","","","","","","","","","","","","","","","","","","","","","","",""
"323.98999999987427","<img src='stim/b/water_pines_snowy_moutain.jpg'><img style='width:200px; height:200px; margin-bottom: 0px;' src='stim/fixation.png'><img src='stim/b/waterfall_waterBelow.jpg'>","49","html-keyboard-response","129","105094","0.0-12.0-1.27","training","gh","0.8","valid","10","g","avoid:lose","49","waterfall_waterBelow.jpg","water_pines_snowy_moutain.jpg","water_pines_snowy_moutain.jpg","GUID","1322","11/11/2020","12","M","left","28","0","1","0.49999999999999994","keep_money.png","B","money"
"null","<img style='border: 5px solid #808080;' src='stim/b/water_pines_snowy_moutain.jpg'><img style='width:150px; height:150px; padding-right: 50px; padding-left: 50px; margin-bottom: 25px;' src='stim/keep_money.png'><img style='border: 5px solid #ffffff;  padding-left:15px;' src='stim/b/waterfall_waterBelow.jpg'>","null","html-keyboard-response","130","106101","0.0-12.0-2.27","","","","","","","","","","","","","","","","","","","","","","","",""
"null","<img style='width:200px; height:200px; margin-left: 95px; margin-right: 95px;' src='stim/fixation.png'>","null","html-keyboard-response","131","107107","0.0-12.0-0.28","","","","","","","","","","","","","","","","","","","","","","","",""
"116.44000000070082","<img src='stim/b/3d-landscape-background-10.jpg'><img style='width:200px; height:200px; margin-bottom: 0px;' src='stim/fixation.png'><img src='stim/b/2822landscape.jpg'>","49","html-keyboard-response","132","107229","0.0-12.0-1.28","training","ab","0.9","valid","10","a","win:stay","49","3d-landscape-background-10.jpg","2822landscape.jpg","3d-landscape-background-10.jpg","GUID","1322","11/11/2020","12","M","left","29","0","1","0.5499999999999999","winwin.bmp","B","money"
"null","<img style='border: 5px solid #808080;' src='stim/b/3d-landscape-background-10.jpg'><img style='width:150px; height:150px; padding-right: 50px; padding-left: 50px; margin-bottom: 25px;' src='stim/winwin.bmp'><img style='border: 5px solid #ffffff;  padding-left:15px;' src='stim/b/2822landscape.jpg'>","null","html-keyboard-response","133","108237","0.0-12.0-2.28","","","","","","","","","","","","","","","","","","","","","","","",""
"null","<img style='width:200px; height:200px; margin-left: 95px; margin-right: 95px;' src='stim/fixation.png'>","null","html-keyboard-response","134","109241","0.0-12.0-0.29","","","","","","","","","","","","","","","","","","","","","","","",""
"238.01999999977124","<img src='stim/b/lsingeltree_tallergrass_clouds.jpg'><img style='width:200px; height:200px; margin-bottom: 0px;' src='stim/fixation.png'><img src='stim/b/orangey_field.jpg'>","49","html-keyboard-response","135","109483","0.0-12.0-1.29","training","cd","0.8","valid","10","c","win:stay","49","lsingeltree_tallergrass_clouds.jpg","orangey_field.jpg","lsingeltree_tallergrass_clouds.jpg","GUID","1322","11/11/2020","12","M","left","30","0","1","0.6","winwin.bmp","B","money"
"null","<img style='border: 5px solid #808080;' src='stim/b/lsingeltree_tallergrass_clouds.jpg'><img style='width:150px; height:150px; padding-right: 50px; padding-left: 50px; margin-bottom: 25px;' src='stim/winwin.bmp'><img style='border: 5px solid #ffffff;  padding-left:15px;' src='stim/b/orangey_field.jpg'>","null","html-keyboard-response","136","110489","0.0-12.0-2.29","","","","","","","","","","","","","","","","","","","","","","","",""
"null","<img style='width:200px; height:200px; margin-left: 95px; margin-right: 95px;' src='stim/fixation.png'>","null","html-keyboard-response","137","111495","0.0-12.0-0.30","","","","","","","","","","","","","","","","","","","","","","","",""
"243.8449999999575","<img src='stim/b/water_pines_distantMountains.jpg'><img style='width:200px; height:200px; margin-bottom: 0px;' src='stim/fixation.png'><img src='stim/b/water_fall_images.jpg'>","49","html-keyboard-response","138","111743","0.0-12.0-1.30","training","ef","0.9","valid","10","e","avoid:lose","48","water_pines_distantMountains.jpg","water_fall_images.jpg","water_fall_images.jpg","GUID","1322","11/11/2020","12","M","left","31","0","0","","loselose.bmp","B","money"
"null","<img style='border: 5px solid #808080;' src='stim/b/water_pines_distantMountains.jpg'><img style='width:150px; height:150px; padding-right: 50px; padding-left: 50px; margin-bottom: 25px;' src='stim/loselose.bmp'><img style='border: 5px solid #ffffff;  padding-left:15px;' src='stim/b/water_fall_images.jpg'>","null","html-keyboard-response","139","112752","0.0-12.0-2.30","","","","","","","","","","","","","","","","","","","","","","","",""
"null","<img style='width:200px; height:200px; margin-left: 95px; margin-right: 95px;' src='stim/fixation.png'>","null","html-keyboard-response","140","113757","0.0-12.0-0.31","","","","","","","","","","","","","","","","","","","","","","","",""
"358.63999999947555","<img src='stim/b/water_pines_snowy_moutain.jpg'><img style='width:200px; height:200px; margin-bottom: 0px;' src='stim/fixation.png'><img src='stim/b/waterfall_waterBelow.jpg'>","49","html-keyboard-response","141","114120","0.0-12.0-1.31","training","gh","0.8","invalid","10","g","avoid:lose","49","waterfall_waterBelow.jpg","water_pines_snowy_moutain.jpg","water_pines_snowy_moutain.jpg","GUID","1322","11/11/2020","12","M","left","32","0","1","0.5499999999999999","loselose.bmp","B","money"
"null","<img style='border: 5px solid #808080;' src='stim/b/water_pines_snowy_moutain.jpg'><img style='width:150px; height:150px; padding-right: 50px; padding-left: 50px; margin-bottom: 25px;' src='stim/loselose.bmp'><img style='border: 5px solid #ffffff;  padding-left:15px;' src='stim/b/waterfall_waterBelow.jpg'>","null","html-keyboard-response","142","115128","0.0-12.0-2.31","","","","","","","","","","","","","","","","","","","","","","","",""
"null","<img style='width:200px; height:200px; margin-left: 95px; margin-right: 95px;' src='stim/fixation.png'>","null","html-keyboard-response","143","116131","0.0-12.0-0.32","","","","","","","","","","","","","","","","","","","","","","","",""
"88.75999999964552","<img src='stim/b/3d-landscape-background-10.jpg'><img style='width:200px; height:200px; margin-bottom: 0px;' src='stim/fixation.png'><img src='stim/b/2822landscape.jpg'>","49","html-keyboard-response","144","116224","0.0-12.0-1.32","training","ab","0.9","valid","10","a","win:stay","49","3d-landscape-background-10.jpg","2822landscape.jpg","3d-landscape-background-10.jpg","GUID","1322","11/11/2020","12","M","left","33","0","1","0.6","winwin.bmp","B","money"
"null","<img style='border: 5px solid #808080;' src='stim/b/3d-landscape-background-10.jpg'><img style='width:150px; height:150px; padding-right: 50px; padding-left: 50px; margin-bottom: 25px;' src='stim/winwin.bmp'><img style='border: 5px solid #ffffff;  padding-left:15px;' src='stim/b/2822landscape.jpg'>","null","html-keyboard-response","145","117229","0.0-12.0-2.32","","","","","","","","","","","","","","","","","","","","","","","",""
"null","<img style='width:200px; height:200px; margin-left: 95px; margin-right: 95px;' src='stim/fixation.png'>","null","html-keyboard-response","146","118233","0.0-12.0-0.33","","","","","","","","","","","","","","","","","","","","","","","",""
"249.37000000044645","<img src='stim/b/water_fall_images.jpg'><img style='width:200px; height:200px; margin-bottom: 0px;' src='stim/fixation.png'><img src='stim/b/water_pines_distantMountains.jpg'>","49","html-keyboard-response","147","118488","0.0-12.0-1.33","training","ef","0.9","valid","10","e","avoid:lose","49","water_fall_images.jpg","water_pines_distantMountains.jpg","water_fall_images.jpg","GUID","1322","11/11/2020","12","M","left","34","0","1","0.6","keep_money.png","B","money"
"null","<img style='border: 5px solid #808080;' src='stim/b/water_fall_images.jpg'><img style='width:150px; height:150px; padding-right: 50px; padding-left: 50px; margin-bottom: 25px;' src='stim/keep_money.png'><img style='border: 5px solid #ffffff;  padding-left:15px;' src='stim/b/water_pines_distantMountains.jpg'>","null","html-keyboard-response","148","119494","0.0-12.0-2.33","","","","","","","","","","","","","","","","","","","","","","","",""
"null","<img style='width:200px; height:200px; margin-left: 95px; margin-right: 95px;' src='stim/fixation.png'>","null","html-keyboard-response","149","120497","0.0-12.0-0.34","","","","","","","","","","","","","","","","","","","","","","","",""
"292.3000000000611","<img src='stim/b/water_pines_snowy_moutain.jpg'><img style='width:200px; height:200px; margin-bottom: 0px;' src='stim/fixation.png'><img src='stim/b/waterfall_waterBelow.jpg'>","49","html-keyboard-response","150","120793","0.0-12.0-1.34","training","gh","0.8","valid","10","g","avoid:lose","49","waterfall_waterBelow.jpg","water_pines_snowy_moutain.jpg","water_pines_snowy_moutain.jpg","GUID","1322","11/11/2020","12","M","left","35","0","1","0.6","keep_money.png","B","money"
"null","<img style='border: 5px solid #808080;' src='stim/b/water_pines_snowy_moutain.jpg'><img style='width:150px; height:150px; padding-right: 50px; padding-left: 50px; margin-bottom: 25px;' src='stim/keep_money.png'><img style='border: 5px solid #ffffff;  padding-left:15px;' src='stim/b/waterfall_waterBelow.jpg'>","null","html-keyboard-response","151","121795","0.0-12.0-2.34","","","","","","","","","","","","","","","","","","","","","","","",""
"null","<img style='width:200px; height:200px; margin-left: 95px; margin-right: 95px;' src='stim/fixation.png'>","null","html-keyboard-response","152","122802","0.0-12.0-0.35","","","","","","","","","","","","","","","","","","","","","","","",""
"328.70000000001164","<img src='stim/b/orangey_field.jpg'><img style='width:200px; height:200px; margin-bottom: 0px;' src='stim/fixation.png'><img src='stim/b/lsingeltree_tallergrass_clouds.jpg'>","49","html-keyboard-response","153","123135","0.0-12.0-1.35","training","cd","0.8","valid","10","c","win:stay","48","orangey_field.jpg","lsingeltree_tallergrass_clouds.jpg","lsingeltree_tallergrass_clouds.jpg","GUID","1322","11/11/2020","12","M","left","36","0","0","0.6","not_winner.png","B","money"
"null","<img style='border: 5px solid #808080;' src='stim/b/orangey_field.jpg'><img style='width:150px; height:150px; padding-right: 50px; padding-left: 50px; margin-bottom: 25px;' src='stim/not_winner.png'><img style='border: 5px solid #ffffff;  padding-left:15px;' src='stim/b/lsingeltree_tallergrass_clouds.jpg'>","null","html-keyboard-response","154","124139","0.0-12.0-2.35","","","","","","","","","","","","","","","","","","","","","","","",""
"null","<img style='width:200px; height:200px; margin-left: 95px; margin-right: 95px;' src='stim/fixation.png'>","null","html-keyboard-response","155","125147","0.0-12.0-0.36","","","","","","","","","","","","","","","","","","","","","","","",""
"227.774999999383","<img src='stim/b/water_pines_distantMountains.jpg'><img style='width:200px; height:200px; margin-bottom: 0px;' src='stim/fixation.png'><img src='stim/b/water_fall_images.jpg'>","48","html-keyboard-response","156","125379","0.0-12.0-1.36","training","ef","0.9","invalid","10","e","avoid:lose","48","water_pines_distantMountains.jpg","water_fall_images.jpg","water_fall_images.jpg","GUID","1322","11/11/2020","12","M","left","37","0","1","0.5499999999999999","loselose.bmp","B","money"
"null","<img style='border: 5px solid #ffffff; padding-right:15px;' src='stim/b/water_pines_distantMountains.jpg'><img style='width:150px; height:150px; padding-right: 50px; padding-left: 50px; margin-bottom: 25px;' src='stim/loselose.bmp'><img style='border: 5px solid #808080;'src='stim/b/water_fall_images.jpg'>","null","html-keyboard-response","157","126385","0.0-12.0-2.36","","","","","","","","","","","","","","","","","","","","","","","",""
"null","<img style='width:200px; height:200px; margin-left: 95px; margin-right: 95px;' src='stim/fixation.png'>","null","html-keyboard-response","158","127393","0.0-12.0-0.37","","","","","","","","","","","","","","","","","","","","","","","",""
"190.10999999954947","<img src='stim/b/water_pines_snowy_moutain.jpg'><img style='width:200px; height:200px; margin-bottom: 0px;' src='stim/fixation.png'><img src='stim/b/waterfall_waterBelow.jpg'>","48","html-keyboard-response","159","127587","0.0-12.0-1.37","training","gh","0.8","valid","10","g","avoid:lose","49","waterfall_waterBelow.jpg","water_pines_snowy_moutain.jpg","water_pines_snowy_moutain.jpg","GUID","1322","11/11/2020","12","M","left","38","0","0","","loselose.bmp","B","money"
"null","<img style='border: 5px solid #ffffff; padding-right:15px;' src='stim/b/water_pines_snowy_moutain.jpg'><img style='width:150px; height:150px; padding-right: 50px; padding-left: 50px; margin-bottom: 25px;' src='stim/loselose.bmp'><img style='border: 5px solid #808080;'src='stim/b/waterfall_waterBelow.jpg'>","null","html-keyboard-response","160","128594","0.0-12.0-2.37","","","","","","","","","","","","","","","","","","","","","","","",""
"null","<img style='width:200px; height:200px; margin-left: 95px; margin-right: 95px;' src='stim/fixation.png'>","null","html-keyboard-response","161","129599","0.0-12.0-0.38","","","","","","","","","","","","","","","","","","","","","","","",""
"95.70499999972526","<img src='stim/b/orangey_field.jpg'><img style='width:200px; height:200px; margin-bottom: 0px;' src='stim/fixation.png'><img src='stim/b/lsingeltree_tallergrass_clouds.jpg'>","48","html-keyboard-response","162","129698","0.0-12.0-1.38","training","cd","0.8","valid","10","c","win:stay","48","orangey_field.jpg","lsingeltree_tallergrass_clouds.jpg","lsingeltree_tallergrass_clouds.jpg","GUID","1322","11/11/2020","12","M","left","39","0","1","0.6","winwin.bmp","B","money"
"null","<img style='border: 5px solid #ffffff; padding-right:15px;' src='stim/b/orangey_field.jpg'><img style='width:150px; height:150px; padding-right: 50px; padding-left: 50px; margin-bottom: 25px;' src='stim/winwin.bmp'><img style='border: 5px solid #808080;'src='stim/b/lsingeltree_tallergrass_clouds.jpg'>","null","html-keyboard-response","163","130705","0.0-12.0-2.38","","","","","","","","","","","","","","","","","","","","","","","",""
"null","<img style='width:200px; height:200px; margin-left: 95px; margin-right: 95px;' src='stim/fixation.png'>","null","html-keyboard-response","164","131712","0.0-12.0-0.39","","","","","","","","","","","","","","","","","","","","","","","",""
"464.7949999998673","<img src='stim/b/2822landscape.jpg'><img style='width:200px; height:200px; margin-bottom: 0px;' src='stim/fixation.png'><img src='stim/b/3d-landscape-background-10.jpg'>","48","html-keyboard-response","165","132181","0.0-12.0-1.39","training","ab","0.9","valid","10","a","win:stay","48","2822landscape.jpg","3d-landscape-background-10.jpg","3d-landscape-background-10.jpg","GUID","1322","11/11/2020","12","M","left","40","0","1","0.65","winwin.bmp","B","money"
"null","<img style='border: 5px solid #ffffff; padding-right:15px;' src='stim/b/2822landscape.jpg'><img style='width:150px; height:150px; padding-right: 50px; padding-left: 50px; margin-bottom: 25px;' src='stim/winwin.bmp'><img style='border: 5px solid #808080;'src='stim/b/3d-landscape-background-10.jpg'>","null","html-keyboard-response","166","133186","0.0-12.0-2.39","","","","","","","","","","","","","","","","","","","","","","","",""
"2578.075000000361","<p>Starting a new block of trials.</p> <p>Press the spacebar to begin.</p>","32","html-keyboard-response","167","136270","0.0-13.0","","","","","","","","","","","","","","","","","","","","","","","",""
"null","<img style='width:200px; height:200px; margin-left: 95px; margin-right: 95px;' src='stim/fixation.png'>","null","html-keyboard-response","168","136773","0.0-14.0-0.0","","","","","","","","","","","","","","","","","","","","","","","",""
"425.80999999973574","<img src='stim/b/waterfall_waterBelow.jpg'><img style='width:200px; height:200px; margin-bottom: 0px;' src='stim/fixation.png'><img src='stim/b/water_pines_snowy_moutain.jpg'>","48","html-keyboard-response","169","137204","0.0-14.0-1.0","training","gh","0.8","valid","10","g","avoid:lose","48","waterfall_waterBelow.jpg","water_pines_snowy_moutain.jpg","water_pines_snowy_moutain.jpg","GUID","1322","11/11/2020","12","M","left","1","1","1","0.65","keep_money.png","B","money"
"null","<img style='border: 5px solid #ffffff; padding-right:15px;' src='stim/b/waterfall_waterBelow.jpg'><img style='width:150px; height:150px; padding-right: 50px; padding-left: 50px; margin-bottom: 25px;' src='stim/keep_money.png'><img style='border: 5px solid #808080;'src='stim/b/water_pines_snowy_moutain.jpg'>","null","html-keyboard-response","170","138206","0.0-14.0-2.0","","","","","","","","","","","","","","","","","","","","","","","",""
"null","<img style='width:200px; height:200px; margin-left: 95px; margin-right: 95px;' src='stim/fixation.png'>","null","html-keyboard-response","171","139210","0.0-14.0-0.1","","","","","","","","","","","","","","","","","","","","","","","",""
"133.51999999940745","<img src='stim/b/water_fall_images.jpg'><img style='width:200px; height:200px; margin-bottom: 0px;' src='stim/fixation.png'><img src='stim/b/water_pines_distantMountains.jpg'>","48","html-keyboard-response","172","139349","0.0-14.0-1.1","training","ef","0.9","valid","10","e","avoid:lose","49","water_fall_images.jpg","water_pines_distantMountains.jpg","water_fall_images.jpg","GUID","1322","11/11/2020","12","M","left","2","1","0","","loselose.bmp","B","money"
"null","<img style='border: 5px solid #ffffff; padding-right:15px;' src='stim/b/water_fall_images.jpg'><img style='width:150px; height:150px; padding-right: 50px; padding-left: 50px; margin-bottom: 25px;' src='stim/loselose.bmp'><img style='border: 5px solid #808080;'src='stim/b/water_pines_distantMountains.jpg'>","null","html-keyboard-response","173","140357","0.0-14.0-2.1","","","","","","","","","","","","","","","","","","","","","","","",""
"null","<img style='width:200px; height:200px; margin-left: 95px; margin-right: 95px;' src='stim/fixation.png'>","null","html-keyboard-response","174","141363","0.0-14.0-0.2","","","","","","","","","","","","","","","","","","","","","","","",""
"149.58500000010827","<img src='stim/b/orangey_field.jpg'><img style='width:200px; height:200px; margin-bottom: 0px;' src='stim/fixation.png'><img src='stim/b/lsingeltree_tallergrass_clouds.jpg'>","48","html-keyboard-response","175","141517","0.0-14.0-1.2","training","cd","0.8","invalid","10","c","win:stay","48","orangey_field.jpg","lsingeltree_tallergrass_clouds.jpg","lsingeltree_tallergrass_clouds.jpg","GUID","1322","11/11/2020","12","M","left","3","1","1","0.65","not_winner.png","B","money"
"null","<img style='border: 5px solid #ffffff; padding-right:15px;' src='stim/b/orangey_field.jpg'><img style='width:150px; height:150px; padding-right: 50px; padding-left: 50px; margin-bottom: 25px;' src='stim/not_winner.png'><img style='border: 5px solid #808080;'src='stim/b/lsingeltree_tallergrass_clouds.jpg'>","null","html-keyboard-response","176","142524","0.0-14.0-2.2","","","","","","","","","","","","","","","","","","","","","","","",""
"null","<img style='width:200px; height:200px; margin-left: 95px; margin-right: 95px;' src='stim/fixation.png'>","null","html-keyboard-response","177","143529","0.0-14.0-0.3","","","","","","","","","","","","","","","","","","","","","","","",""
"19.324999999284046","<img src='stim/b/2822landscape.jpg'><img style='width:200px; height:200px; margin-bottom: 0px;' src='stim/fixation.png'><img src='stim/b/3d-landscape-background-10.jpg'>","48","html-keyboard-response","178","143553","0.0-14.0-1.3","training","ab","0.9","valid","10","a","win:stay","48","2822landscape.jpg","3d-landscape-background-10.jpg","3d-landscape-background-10.jpg","GUID","1322","11/11/2020","12","M","left","4","1","1","0.7000000000000001","winwin.bmp","B","money"
"null","<img style='border: 5px solid #ffffff; padding-right:15px;' src='stim/b/2822landscape.jpg'><img style='width:150px; height:150px; padding-right: 50px; padding-left: 50px; margin-bottom: 25px;' src='stim/winwin.bmp'><img style='border: 5px solid #808080;'src='stim/b/3d-landscape-background-10.jpg'>","null","html-keyboard-response","179","144561","0.0-14.0-2.3","","","","","","","","","","","","","","","","","","","","","","","",""
"null","<img style='width:200px; height:200px; margin-left: 95px; margin-right: 95px;' src='stim/fixation.png'>","null","html-keyboard-response","180","145563","0.0-14.0-0.4","","","","","","","","","","","","","","","","","","","","","","","",""
"390.3399999999092","<img src='stim/b/waterfall_waterBelow.jpg'><img style='width:200px; height:200px; margin-bottom: 0px;' src='stim/fixation.png'><img src='stim/b/water_pines_snowy_moutain.jpg'>","48","html-keyboard-response","181","145957","0.0-14.0-1.4","training","gh","0.8","invalid","10","g","avoid:lose","48","waterfall_waterBelow.jpg","water_pines_snowy_moutain.jpg","water_pines_snowy_moutain.jpg","GUID","1322","11/11/2020","12","M","left","5","1","1","0.65","loselose.bmp","B","money"
"null","<img style='border: 5px solid #ffffff; padding-right:15px;' src='stim/b/waterfall_waterBelow.jpg'><img style='width:150px; height:150px; padding-right: 50px; padding-left: 50px; margin-bottom: 25px;' src='stim/loselose.bmp'><img style='border: 5px solid #808080;'src='stim/b/water_pines_snowy_moutain.jpg'>","null","html-keyboard-response","182","146961","0.0-14.0-2.4","","","","","","","","","","","","","","","","","","","","","","","",""
"null","<img style='width:200px; height:200px; margin-left: 95px; margin-right: 95px;' src='stim/fixation.png'>","null","html-keyboard-response","183","147967","0.0-14.0-0.5","","","","","","","","","","","","","","","","","","","","","","","",""
"1900.5250000000233","<img src='stim/b/orangey_field.jpg'><img style='width:200px; height:200px; margin-bottom: 0px;' src='stim/fixation.png'><img src='stim/b/lsingeltree_tallergrass_clouds.jpg'>","48","html-keyboard-response","184","149871","0.0-14.0-1.5","training","cd","0.8","valid","10","c","win:stay","48","orangey_field.jpg","lsingeltree_tallergrass_clouds.jpg","lsingeltree_tallergrass_clouds.jpg","GUID","1322","11/11/2020","12","M","left","6","1","1","0.7000000000000001","winwin.bmp","B","money"
"null","<img style='border: 5px solid #ffffff; padding-right:15px;' src='stim/b/orangey_field.jpg'><img style='width:150px; height:150px; padding-right: 50px; padding-left: 50px; margin-bottom: 25px;' src='stim/winwin.bmp'><img style='border: 5px solid #808080;'src='stim/b/lsingeltree_tallergrass_clouds.jpg'>","null","html-keyboard-response","185","150875","0.0-14.0-2.5","","","","","","","","","","","","","","","","","","","","","","","",""
"null","<img style='width:200px; height:200px; margin-left: 95px; margin-right: 95px;' src='stim/fixation.png'>","null","html-keyboard-response","186","151880","0.0-14.0-0.6","","","","","","","","","","","","","","","","","","","","","","","",""
"1450.8299999997835","<img src='stim/b/water_pines_distantMountains.jpg'><img style='width:200px; height:200px; margin-bottom: 0px;' src='stim/fixation.png'><img src='stim/b/water_fall_images.jpg'>","48","html-keyboard-response","187","153337","0.0-14.0-1.6","training","ef","0.9","valid","10","e","avoid:lose","48","water_pines_distantMountains.jpg","water_fall_images.jpg","water_fall_images.jpg","GUID","1322","11/11/2020","12","M","left","7","1","1","0.7000000000000001","keep_money.png","B","money"
"null","<img style='border: 5px solid #ffffff; padding-right:15px;' src='stim/b/water_pines_distantMountains.jpg'><img style='width:150px; height:150px; padding-right: 50px; padding-left: 50px; margin-bottom: 25px;' src='stim/keep_money.png'><img style='border: 5px solid #808080;'src='stim/b/water_fall_images.jpg'>","null","html-keyboard-response","188","154341","0.0-14.0-2.6","","","","","","","","","","","","","","","","","","","","","","","",""
"null","<img style='width:200px; height:200px; margin-left: 95px; margin-right: 95px;' src='stim/fixation.png'>","null","html-keyboard-response","189","155347","0.0-14.0-0.7","","","","","","","","","","","","","","","","","","","","","","","",""
"33.74500000063563","<img src='stim/b/2822landscape.jpg'><img style='width:200px; height:200px; margin-bottom: 0px;' src='stim/fixation.png'><img src='stim/b/3d-landscape-background-10.jpg'>","48","html-keyboard-response","190","155387","0.0-14.0-1.7","training","ab","0.9","valid","10","a","win:stay","48","2822landscape.jpg","3d-landscape-background-10.jpg","3d-landscape-background-10.jpg","GUID","1322","11/11/2020","12","M","left","8","1","1","0.7500000000000001","winwin.bmp","B","money"
"null","<img style='border: 5px solid #ffffff; padding-right:15px;' src='stim/b/2822landscape.jpg'><img style='width:150px; height:150px; padding-right: 50px; padding-left: 50px; margin-bottom: 25px;' src='stim/winwin.bmp'><img style='border: 5px solid #808080;'src='stim/b/3d-landscape-background-10.jpg'>","null","html-keyboard-response","191","156394","0.0-14.0-2.7","","","","","","","","","","","","","","","","","","","","","","","",""
"null","<img style='width:200px; height:200px; margin-left: 95px; margin-right: 95px;' src='stim/fixation.png'>","null","html-keyboard-response","192","157400","0.0-14.0-0.8","","","","","","","","","","","","","","","","","","","","","","","",""
"273.86000000024796","<img src='stim/b/water_fall_images.jpg'><img style='width:200px; height:200px; margin-bottom: 0px;' src='stim/fixation.png'><img src='stim/b/water_pines_distantMountains.jpg'>","48","html-keyboard-response","193","157679","0.0-14.0-1.8","training","ef","0.9","valid","10","e","avoid:lose","49","water_fall_images.jpg","water_pines_distantMountains.jpg","water_fall_images.jpg","GUID","1322","11/11/2020","12","M","left","9","1","0","","loselose.bmp","B","money"
"null","<img style='border: 5px solid #ffffff; padding-right:15px;' src='stim/b/water_fall_images.jpg'><img style='width:150px; height:150px; padding-right: 50px; padding-left: 50px; margin-bottom: 25px;' src='stim/loselose.bmp'><img style='border: 5px solid #808080;'src='stim/b/water_pines_distantMountains.jpg'>","null","html-keyboard-response","194","158688","0.0-14.0-2.8","","","","","","","","","","","","","","","","","","","","","","","",""
"null","<img style='width:200px; height:200px; margin-left: 95px; margin-right: 95px;' src='stim/fixation.png'>","null","html-keyboard-response","195","159693","0.0-14.0-0.9","","","","","","","","","","","","","","","","","","","","","","","",""
"415.5099999998347","<img src='stim/b/waterfall_waterBelow.jpg'><img style='width:200px; height:200px; margin-bottom: 0px;' src='stim/fixation.png'><img src='stim/b/water_pines_snowy_moutain.jpg'>","48","html-keyboard-response","196","160113","0.0-14.0-1.9","training","gh","0.8","valid","10","g","avoid:lose","48","waterfall_waterBelow.jpg","water_pines_snowy_moutain.jpg","water_pines_snowy_moutain.jpg","GUID","1322","11/11/2020","12","M","left","10","1","1","0.7500000000000001","keep_money.png","B","money"
"null","<img style='border: 5px solid #ffffff; padding-right:15px;' src='stim/b/waterfall_waterBelow.jpg'><img style='width:150px; height:150px; padding-right: 50px; padding-left: 50px; margin-bottom: 25px;' src='stim/keep_money.png'><img style='border: 5px solid #808080;'src='stim/b/water_pines_snowy_moutain.jpg'>","null","html-keyboard-response","197","161120","0.0-14.0-2.9","","","","","","","","","","","","","","","","","","","","","","","",""
"null","<img style='width:200px; height:200px; margin-left: 95px; margin-right: 95px;' src='stim/fixation.png'>","null","html-keyboard-response","198","162126","0.0-14.0-0.10","","","","","","","","","","","","","","","","","","","","","","","",""
"227.67000000021653","<img src='stim/b/2822landscape.jpg'><img style='width:200px; height:200px; margin-bottom: 0px;' src='stim/fixation.png'><img src='stim/b/3d-landscape-background-10.jpg'>","48","html-keyboard-response","199","162359","0.0-14.0-1.10","training","ab","0.9","valid","10","a","win:stay","48","2822landscape.jpg","3d-landscape-background-10.jpg","3d-landscape-background-10.jpg","GUID","1322","11/11/2020","12","M","left","11","1","1","0.8000000000000002","winwin.bmp","B","money"
"null","<img style='border: 5px solid #ffffff; padding-right:15px;' src='stim/b/2822landscape.jpg'><img style='width:150px; height:150px; padding-right: 50px; padding-left: 50px; margin-bottom: 25px;' src='stim/winwin.bmp'><img style='border: 5px solid #808080;'src='stim/b/3d-landscape-background-10.jpg'>","null","html-keyboard-response","200","163365","0.0-14.0-2.10","","","","","","","","","","","","","","","","","","","","","","","",""
"null","<img style='width:200px; height:200px; margin-left: 95px; margin-right: 95px;' src='stim/fixation.png'>","null","html-keyboard-response","201","164370","0.0-14.0-0.11","","","","","","","","","","","","","","","","","","","","","","","",""
"557.060000000085","<img src='stim/b/lsingeltree_tallergrass_clouds.jpg'><img style='width:200px; height:200px; margin-bottom: 0px;' src='stim/fixation.png'><img src='stim/b/orangey_field.jpg'>","48","html-keyboard-response","202","164933","0.0-14.0-1.11","training","cd","0.8","valid","10","c","win:stay","49","lsingeltree_tallergrass_clouds.jpg","orangey_field.jpg","lsingeltree_tallergrass_clouds.jpg","GUID","1322","11/11/2020","12","M","left","12","1","0","0.8000000000000002","not_winner.png","B","money"
"null","<img style='border: 5px solid #ffffff; padding-right:15px;' src='stim/b/lsingeltree_tallergrass_clouds.jpg'><img style='width:150px; height:150px; padding-right: 50px; padding-left: 50px; margin-bottom: 25px;' src='stim/not_winner.png'><img style='border: 5px solid #808080;'src='stim/b/orangey_field.jpg'>","null","html-keyboard-response","203","165935","0.0-14.0-2.11","","","","","","","","","","","","","","","","","","","","","","","",""
"null","<img style='width:200px; height:200px; margin-left: 95px; margin-right: 95px;' src='stim/fixation.png'>","null","html-keyboard-response","204","166942","0.0-14.0-0.12","","","","","","","","","","","","","","","","","","","","","","","",""
"1142.5499999995518","<img src='stim/b/lsingeltree_tallergrass_clouds.jpg'><img style='width:200px; height:200px; margin-bottom: 0px;' src='stim/fixation.png'><img src='stim/b/orangey_field.jpg'>","48","html-keyboard-response","205","168089","0.0-14.0-1.12","training","cd","0.8","invalid","10","c","win:stay","49","lsingeltree_tallergrass_clouds.jpg","orangey_field.jpg","lsingeltree_tallergrass_clouds.jpg","GUID","1322","11/11/2020","12","M","left","13","1","0","0.8500000000000002","winwin.bmp","B","money"
"null","<img style='border: 5px solid #ffffff; padding-right:15px;' src='stim/b/lsingeltree_tallergrass_clouds.jpg'><img style='width:150px; height:150px; padding-right: 50px; padding-left: 50px; margin-bottom: 25px;' src='stim/winwin.bmp'><img style='border: 5px solid #808080;'src='stim/b/orangey_field.jpg'>","null","html-keyboard-response","206","169093","0.0-14.0-2.12","","","","","","","","","","","","","","","","","","","","","","","",""
"null","<img style='width:200px; height:200px; margin-left: 95px; margin-right: 95px;' src='stim/fixation.png'>","null","html-keyboard-response","207","170095","0.0-14.0-0.13","","","","","","","","","","","","","","","","","","","","","","","",""
"1900.9500000001863","<img src='stim/b/3d-landscape-background-10.jpg'><img style='width:200px; height:200px; margin-bottom: 0px;' src='stim/fixation.png'><img src='stim/b/2822landscape.jpg'>","48","html-keyboard-response","208","172001","0.0-14.0-1.13","training","ab","0.9","invalid","10","a","win:stay","49","3d-landscape-background-10.jpg","2822landscape.jpg","3d-landscape-background-10.jpg","GUID","1322","11/11/2020","12","M","left","14","1","0","0.9000000000000002","winwin.bmp","B","money"
"null","<img style='border: 5px solid #ffffff; padding-right:15px;' src='stim/b/3d-landscape-background-10.jpg'><img style='width:150px; height:150px; padding-right: 50px; padding-left: 50px; margin-bottom: 25px;' src='stim/winwin.bmp'><img style='border: 5px solid #808080;'src='stim/b/2822landscape.jpg'>","null","html-keyboard-response","209","173006","0.0-14.0-2.13","","","","","","","","","","","","","","","","","","","","","","","",""
"null","<img style='width:200px; height:200px; margin-left: 95px; margin-right: 95px;' src='stim/fixation.png'>","null","html-keyboard-response","210","174013","0.0-14.0-0.14","","","","","","","","","","","","","","","","","","","","","","","",""
"2946.004999999801","<img src='stim/b/waterfall_waterBelow.jpg'><img style='width:200px; height:200px; margin-bottom: 0px;' src='stim/fixation.png'><img src='stim/b/water_pines_snowy_moutain.jpg'>","48","html-keyboard-response","211","176963","0.0-14.0-1.14","training","gh","0.8","valid","10","g","avoid:lose","48","waterfall_waterBelow.jpg","water_pines_snowy_moutain.jpg","water_pines_snowy_moutain.jpg","GUID","1322","11/11/2020","12","M","left","15","1","1","0.9000000000000002","keep_money.png","B","money"
"null","<img style='border: 5px solid #ffffff; padding-right:15px;' src='stim/b/waterfall_waterBelow.jpg'><img style='width:150px; height:150px; padding-right: 50px; padding-left: 50px; margin-bottom: 25px;' src='stim/keep_money.png'><img style='border: 5px solid #808080;'src='stim/b/water_pines_snowy_moutain.jpg'>","null","html-keyboard-response","212","177968","0.0-14.0-2.14","","","","","","","","","","","","","","","","","","","","","","","",""
"null","<img style='width:200px; height:200px; margin-left: 95px; margin-right: 95px;' src='stim/fixation.png'>","null","html-keyboard-response","213","178974","0.0-14.0-0.15","","","","","","","","","","","","","","","","","","","","","","","",""
"787.91999999978","<img src='stim/b/water_pines_distantMountains.jpg'><img style='width:200px; height:200px; margin-bottom: 0px;' src='stim/fixation.png'><img src='stim/b/water_fall_images.jpg'>","48","html-keyboard-response","214","179767","0.0-14.0-1.15","training","ef","0.9","valid","10","e","avoid:lose","48","water_pines_distantMountains.jpg","water_fall_images.jpg","water_fall_images.jpg","GUID","1322","11/11/2020","12","M","left","16","1","1","0.9000000000000002","keep_money.png","B","money"
"null","<img style='border: 5px solid #ffffff; padding-right:15px;' src='stim/b/water_pines_distantMountains.jpg'><img style='width:150px; height:150px; padding-right: 50px; padding-left: 50px; margin-bottom: 25px;' src='stim/keep_money.png'><img style='border: 5px solid #808080;'src='stim/b/water_fall_images.jpg'>","null","html-keyboard-response","215","180773","0.0-14.0-2.15","","","","","","","","","","","","","","","","","","","","","","","",""
"null","<img style='width:200px; height:200px; margin-left: 95px; margin-right: 95px;' src='stim/fixation.png'>","null","html-keyboard-response","216","181779","0.0-14.0-0.16","","","","","","","","","","","","","","","","","","","","","","","",""
"1164.0250000000233","<img src='stim/b/water_pines_distantMountains.jpg'><img style='width:200px; height:200px; margin-bottom: 0px;' src='stim/fixation.png'><img src='stim/b/water_fall_images.jpg'>","48","html-keyboard-response","217","182946","0.0-14.0-1.16","training","ef","0.9","valid","10","e","avoid:lose","48","water_pines_distantMountains.jpg","water_fall_images.jpg","water_fall_images.jpg","GUID","1322","11/11/2020","12","M","left","17","1","1","0.9000000000000002","keep_money.png","B","money"
"null","<img style='border: 5px solid #ffffff; padding-right:15px;' src='stim/b/water_pines_distantMountains.jpg'><img style='width:150px; height:150px; padding-right: 50px; padding-left: 50px; margin-bottom: 25px;' src='stim/keep_money.png'><img style='border: 5px solid #808080;'src='stim/b/water_fall_images.jpg'>","null","html-keyboard-response","218","183951","0.0-14.0-2.16","","","","","","","","","","","","","","","","","","","","","","","",""
"null","<img style='width:200px; height:200px; margin-left: 95px; margin-right: 95px;' src='stim/fixation.png'>","null","html-keyboard-response","219","184956","0.0-14.0-0.17","","","","","","","","","","","","","","","","","","","","","","","",""
"1846.3099999998813","<img src='stim/b/water_pines_snowy_moutain.jpg'><img style='width:200px; height:200px; margin-bottom: 0px;' src='stim/fixation.png'><img src='stim/b/waterfall_waterBelow.jpg'>","48","html-keyboard-response","220","186806","0.0-14.0-1.17","training","gh","0.8","valid","10","g","avoid:lose","49","waterfall_waterBelow.jpg","water_pines_snowy_moutain.jpg","water_pines_snowy_moutain.jpg","GUID","1322","11/11/2020","12","M","left","18","1","0","","loselose.bmp","B","money"
"null","<img style='border: 5px solid #ffffff; padding-right:15px;' src='stim/b/water_pines_snowy_moutain.jpg'><img style='width:150px; height:150px; padding-right: 50px; padding-left: 50px; margin-bottom: 25px;' src='stim/loselose.bmp'><img style='border: 5px solid #808080;'src='stim/b/waterfall_waterBelow.jpg'>","null","html-keyboard-response","221","187810","0.0-14.0-2.17","","","","","","","","","","","","","","","","","","","","","","","",""
"null","<img style='width:200px; height:200px; margin-left: 95px; margin-right: 95px;' src='stim/fixation.png'>","null","html-keyboard-response","222","188816","0.0-14.0-0.18","","","","","","","","","","","","","","","","","","","","","","","",""
"225.39000000050873","<img src='stim/b/orangey_field.jpg'><img style='width:200px; height:200px; margin-bottom: 0px;' src='stim/fixation.png'><img src='stim/b/lsingeltree_tallergrass_clouds.jpg'>","48","html-keyboard-response","223","189046","0.0-14.0-1.18","training","cd","0.8","valid","10","c","win:stay","48","orangey_field.jpg","lsingeltree_tallergrass_clouds.jpg","lsingeltree_tallergrass_clouds.jpg","GUID","1322","11/11/2020","12","M","left","19","1","1","0.9500000000000003","winwin.bmp","B","money"
"null","<img style='border: 5px solid #ffffff; padding-right:15px;' src='stim/b/orangey_field.jpg'><img style='width:150px; height:150px; padding-right: 50px; padding-left: 50px; margin-bottom: 25px;' src='stim/winwin.bmp'><img style='border: 5px solid #808080;'src='stim/b/lsingeltree_tallergrass_clouds.jpg'>","null","html-keyboard-response","224","190053","0.0-14.0-2.18","","","","","","","","","","","","","","","","","","","","","","","",""
"null","<img style='width:200px; height:200px; margin-left: 95px; margin-right: 95px;' src='stim/fixation.png'>","null","html-keyboard-response","225","191060","0.0-14.0-0.19","","","","","","","","","","","","","","","","","","","","","","","",""
"291.3650000000489","<img src='stim/b/3d-landscape-background-10.jpg'><img style='width:200px; height:200px; margin-bottom: 0px;' src='stim/fixation.png'><img src='stim/b/2822landscape.jpg'>","48","html-keyboard-response","226","191356","0.0-14.0-1.19","training","ab","0.9","valid","10","a","win:stay","49","3d-landscape-background-10.jpg","2822landscape.jpg","3d-landscape-background-10.jpg","GUID","1322","11/11/2020","12","M","left","20","1","0","0.9500000000000003","not_winner.png","B","money"
"null","<img style='border: 5px solid #ffffff; padding-right:15px;' src='stim/b/3d-landscape-background-10.jpg'><img style='width:150px; height:150px; padding-right: 50px; padding-left: 50px; margin-bottom: 25px;' src='stim/not_winner.png'><img style='border: 5px solid #808080;'src='stim/b/2822landscape.jpg'>","null","html-keyboard-response","227","192360","0.0-14.0-2.19","","","","","","","","","","","","","","","","","","","","","","","",""
"null","<img style='width:200px; height:200px; margin-left: 95px; margin-right: 95px;' src='stim/fixation.png'>","null","html-keyboard-response","228","193367","0.0-14.0-0.20","","","","","","","","","","","","","","","","","","","","","","","",""
"560.4100000000617","<img src='stim/b/lsingeltree_tallergrass_clouds.jpg'><img style='width:200px; height:200px; margin-bottom: 0px;' src='stim/fixation.png'><img src='stim/b/orangey_field.jpg'>","48","html-keyboard-response","229","193932","0.0-14.0-1.20","training","cd","0.8","valid","10","c","win:stay","49","lsingeltree_tallergrass_clouds.jpg","orangey_field.jpg","lsingeltree_tallergrass_clouds.jpg","GUID","1322","11/11/2020","12","M","left","21","1","0","0.9500000000000003","not_winner.png","B","money"
"null","<img style='border: 5px solid #ffffff; padding-right:15px;' src='stim/b/lsingeltree_tallergrass_clouds.jpg'><img style='width:150px; height:150px; padding-right: 50px; padding-left: 50px; margin-bottom: 25px;' src='stim/not_winner.png'><img style='border: 5px solid #808080;'src='stim/b/orangey_field.jpg'>","null","html-keyboard-response","230","194937","0.0-14.0-2.20","","","","","","","","","","","","","","","","","","","","","","","",""
"null","<img style='width:200px; height:200px; margin-left: 95px; margin-right: 95px;' src='stim/fixation.png'>","null","html-keyboard-response","231","195944","0.0-14.0-0.21","","","","","","","","","","","","","","","","","","","","","","","",""
"109.30999999982305","<img src='stim/b/waterfall_waterBelow.jpg'><img style='width:200px; height:200px; margin-bottom: 0px;' src='stim/fixation.png'><img src='stim/b/water_pines_snowy_moutain.jpg'>","48","html-keyboard-response","232","196057","0.0-14.0-1.21","training","gh","0.8","valid","10","g","avoid:lose","48","waterfall_waterBelow.jpg","water_pines_snowy_moutain.jpg","water_pines_snowy_moutain.jpg","GUID","1322","11/11/2020","12","M","left","22","1","1","0.9500000000000003","keep_money.png","B","money"
"null","<img style='border: 5px solid #ffffff; padding-right:15px;' src='stim/b/waterfall_waterBelow.jpg'><img style='width:150px; height:150px; padding-right: 50px; padding-left: 50px; margin-bottom: 25px;' src='stim/keep_money.png'><img style='border: 5px solid #808080;'src='stim/b/water_pines_snowy_moutain.jpg'>","null","html-keyboard-response","233","197060","0.0-14.0-2.21","","","","","","","","","","","","","","","","","","","","","","","",""
"null","<img style='width:200px; height:200px; margin-left: 95px; margin-right: 95px;' src='stim/fixation.png'>","null","html-keyboard-response","234","198065","0.0-14.0-0.22","","","","","","","","","","","","","","","","","","","","","","","",""
"489.9800000002724","<img src='stim/b/2822landscape.jpg'><img style='width:200px; height:200px; margin-bottom: 0px;' src='stim/fixation.png'><img src='stim/b/3d-landscape-background-10.jpg'>","48","html-keyboard-response","235","198560","0.0-14.0-1.22","training","ab","0.9","valid","10","a","win:stay","48","2822landscape.jpg","3d-landscape-background-10.jpg","3d-landscape-background-10.jpg","GUID","1322","11/11/2020","12","M","left","23","1","1","1.0000000000000002","winwin.bmp","B","money"
"null","<img style='border: 5px solid #ffffff; padding-right:15px;' src='stim/b/2822landscape.jpg'><img style='width:150px; height:150px; padding-right: 50px; padding-left: 50px; margin-bottom: 25px;' src='stim/winwin.bmp'><img style='border: 5px solid #808080;'src='stim/b/3d-landscape-background-10.jpg'>","null","html-keyboard-response","236","199567","0.0-14.0-2.22","","","","","","","","","","","","","","","","","","","","","","","",""
"null","<img style='width:200px; height:200px; margin-left: 95px; margin-right: 95px;' src='stim/fixation.png'>","null","html-keyboard-response","237","200569","0.0-14.0-0.23","","","","","","","","","","","","","","","","","","","","","","","",""
"348.90500000072643","<img src='stim/b/water_fall_images.jpg'><img style='width:200px; height:200px; margin-bottom: 0px;' src='stim/fixation.png'><img src='stim/b/water_pines_distantMountains.jpg'>","48","html-keyboard-response","238","200924","0.0-14.0-1.23","training","ef","0.9","valid","10","e","avoid:lose","49","water_fall_images.jpg","water_pines_distantMountains.jpg","water_fall_images.jpg","GUID","1322","11/11/2020","12","M","left","24","1","0","","loselose.bmp","B","money"
"null","<img style='border: 5px solid #ffffff; padding-right:15px;' src='stim/b/water_fall_images.jpg'><img style='width:150px; height:150px; padding-right: 50px; padding-left: 50px; margin-bottom: 25px;' src='stim/loselose.bmp'><img style='border: 5px solid #808080;'src='stim/b/water_pines_distantMountains.jpg'>","null","html-keyboard-response","239","201928","0.0-14.0-2.23","","","","","","","","","","","","","","","","","","","","","","","",""
"null","<img style='width:200px; height:200px; margin-left: 95px; margin-right: 95px;' src='stim/fixation.png'>","null","html-keyboard-response","240","202934","0.0-14.0-0.24","","","","","","","","","","","","","","","","","","","","","","","",""
"609.5350000004983","<img src='stim/b/lsingeltree_tallergrass_clouds.jpg'><img style='width:200px; height:200px; margin-bottom: 0px;' src='stim/fixation.png'><img src='stim/b/orangey_field.jpg'>","48","html-keyboard-response","241","203549","0.0-14.0-1.24","training","cd","0.8","valid","10","c","win:stay","49","lsingeltree_tallergrass_clouds.jpg","orangey_field.jpg","lsingeltree_tallergrass_clouds.jpg","GUID","1322","11/11/2020","12","M","left","25","1","0","1.0000000000000002","not_winner.png","B","money"
"null","<img style='border: 5px solid #ffffff; padding-right:15px;' src='stim/b/lsingeltree_tallergrass_clouds.jpg'><img style='width:150px; height:150px; padding-right: 50px; padding-left: 50px; margin-bottom: 25px;' src='stim/not_winner.png'><img style='border: 5px solid #808080;'src='stim/b/orangey_field.jpg'>","null","html-keyboard-response","242","204554","0.0-14.0-2.24","","","","","","","","","","","","","","","","","","","","","","","",""
"null","<img style='width:200px; height:200px; margin-left: 95px; margin-right: 95px;' src='stim/fixation.png'>","null","html-keyboard-response","243","205561","0.0-14.0-0.25","","","","","","","","","","","","","","","","","","","","","","","",""
"1183.3750000005239","<img src='stim/b/water_fall_images.jpg'><img style='width:200px; height:200px; margin-bottom: 0px;' src='stim/fixation.png'><img src='stim/b/water_pines_distantMountains.jpg'>","48","html-keyboard-response","244","206749","0.0-14.0-1.25","training","ef","0.9","valid","10","e","avoid:lose","49","water_fall_images.jpg","water_pines_distantMountains.jpg","water_fall_images.jpg","GUID","1322","11/11/2020","12","M","left","26","1","0","","loselose.bmp","B","money"
"null","<img style='border: 5px solid #ffffff; padding-right:15px;' src='stim/b/water_fall_images.jpg'><img style='width:150px; height:150px; padding-right: 50px; padding-left: 50px; margin-bottom: 25px;' src='stim/loselose.bmp'><img style='border: 5px solid #808080;'src='stim/b/water_pines_distantMountains.jpg'>","null","html-keyboard-response","245","207753","0.0-14.0-2.25","","","","","","","","","","","","","","","","","","","","","","","",""
"null","<img style='width:200px; height:200px; margin-left: 95px; margin-right: 95px;' src='stim/fixation.png'>","null","html-keyboard-response","246","208761","0.0-14.0-0.26","","","","","","","","","","","","","","","","","","","","","","","",""
"2402.57500000007","<img src='stim/b/3d-landscape-background-10.jpg'><img style='width:200px; height:200px; margin-bottom: 0px;' src='stim/fixation.png'><img src='stim/b/2822landscape.jpg'>","48","html-keyboard-response","247","211168","0.0-14.0-1.26","training","ab","0.9","valid","10","a","win:stay","49","3d-landscape-background-10.jpg","2822landscape.jpg","3d-landscape-background-10.jpg","GUID","1322","11/11/2020","12","M","left","27","1","0","1.0000000000000002","not_winner.png","B","money"
"null","<img style='border: 5px solid #ffffff; padding-right:15px;' src='stim/b/3d-landscape-background-10.jpg'><img style='width:150px; height:150px; padding-right: 50px; padding-left: 50px; margin-bottom: 25px;' src='stim/not_winner.png'><img style='border: 5px solid #808080;'src='stim/b/2822landscape.jpg'>","null","html-keyboard-response","248","212171","0.0-14.0-2.26","","","","","","","","","","","","","","","","","","","","","","","",""
"null","<img style='width:200px; height:200px; margin-left: 95px; margin-right: 95px;' src='stim/fixation.png'>","null","html-keyboard-response","249","213179","0.0-14.0-0.27","","","","","","","","","","","","","","","","","","","","","","","",""
