"rt","stimulus","key_press","trial_type","trial_index","time_elapsed","internal_node_id","block_type","pair","pair_validity","trial_validity","pairTrialsPerBlock","better_stim","reward_type","correct_response","filename_left","filename_right","filename_better","subjectKey","src_subject_id","site","interview_date","session","sex","sample_group","interview_age","trial_number","block_number","accuracy"
"464.78500007651746","<h3 style=""color:#0ed145;"">Welcome to the experiment!</h3><p>Press the spacebar continue.</p>","32","html-keyboard-response","0","469","0.0-0.0","","","","","","","","","","","","","","","","","","","","","",""
"170.70999997667968","<p>In this task you will see two pictures side-by-side on the computer screen.</p><p>In each pair of pictures you see on the screen, one picture will be better than the other.</p><p>You need to figure out which picture in each pair is the better one.</p><p>Press the spacebar continue.</p>","32","html-keyboard-response","1","641","0.0-1.0","","","","","","","","","","","","","","","","","","","","","",""
"187.4699997715652","<p>The better picture in each pair will be more likely to either</p><p>A) win you some money,</p><p>or</p><p>B) allow you to keep the money you've already earned.</p><p>Press the spacebar continue.</p>","32","html-keyboard-response","2","829","0.0-2.0","","","","","","","","","","","","","","","","","","","","","",""
"186.7200001142919","<p>On those trials where you can A) win money, you will want to select the picture most likely to earn a nickel:</p><img style=""height:100px; width:100px"" src=""stim/win.bmp""</img><p>Because if you keep seeing this feedback:</p><img style=""height:125px; width:125px"" src=""stim/not_winner.png""></img><p>you probably aren't selecting the best picture...</p><p>Press the spacebar continue.</p>","32","html-keyboard-response","3","1018","0.0-3.0","","","","","","","","","","","","","","","","","","","","","",""
"178.42500004917383","<p>On those trials where you can B) lose money, you will want to select the picture most likely to give this feedback:</p><img style=""height:125px; width:125px"" src=""stim/keep_money.png""></img><p>Because if you keep seeing this:</p><img style=""height:100px; width:100px"" src=""stim/lose.bmp""></img><p>you probably aren't selecting the best picture...</p><p>Press the spacebar continue.</p>","32","html-keyboard-response","4","1198","0.0-4.0","","","","","","","","","","","","","","","","","","","","","",""
"215.76500008814037","<p>Press the 1 key on your keyboard to select the picture on the LEFT.</p><p>Press the 0 key on your keyboard to select the picture on the RIGHT.</p><p>Press the spacebar continue.</p>","32","html-keyboard-response","5","1415","0.0-5.0","","","","","","","","","","","","","","","","","","","","","",""
"409.2800000216812","<p>First you will do some practice trials.</p> <p>Press either button when you are ready to begin.</p>","49","html-keyboard-response","6","1825","0.0-6.0","","","","","","","","","","","","","","","","","","","","","",""
"null","<img style='width:200px; height:200px; margin-left: 95px; margin-right: 95px;' src='stim/fixation.png'>","null","html-keyboard-response","7","2514","0.0-7.0-0.0","","","","","","","","","","","","","","","","","","","","","",""
"299.20000000856817","<img src='stim/b/wheat_with_farmhouse.jpg'><img style='width:200px; height:200px; margin-bottom: 0px;' src='stim/fixation.png'><img src='stim/b/Trees_with_flowers.jpg'>","49","html-keyboard-response","8","2818","0.0-7.0-1.0","practice","ef","1","valid","6","e","avoid:lose","50","stim/b/wheat_with_farmhouse.jpg","stim/b/Trees_with_flowers.jpg","stim/b/Trees_with_flowers.jpg","GUID","20123","20","must be formatted exactly thusly: MM/DD/YYYY","??","??","?? maybe 1=Clinical; 2=Healthy control","integer number of months","0","0","0"
"null","<img style='border: 5px solid #808080;' src='stim/b/wheat_with_farmhouse.jpg'><img style='width:150px; height:150px; padding-right: 50px; padding-left: 50px; margin-bottom: 50px;' src='stim/loselose.bmp'><img style='border: 5px solid #ffffff;  padding-left:15px;' src='stim/b/Trees_with_flowers.jpg'>","null","html-keyboard-response","9","3823","0.0-7.0-2.0","","","","","","","","","","","","","","","","","","","","","",""
"null","<img style='width:200px; height:200px; margin-left: 95px; margin-right: 95px;' src='stim/fixation.png'>","null","html-keyboard-response","10","4831","0.0-7.0-0.1","","","","","","","","","","","","","","","","","","","","","",""
"395.77000006102026","<img src='stim/b/closeWater_pines_mountains.jpg'><img style='width:200px; height:200px; margin-bottom: 0px;' src='stim/fixation.png'><img src='stim/b/African_landscape.jpg'>","50","html-keyboard-response","11","5229","0.0-7.0-1.1","practice","ab","1","valid","6","a","win:stay","50","stim/b/closeWater_pines_mountains.jpg","stim/b/African_landscape.jpg","stim/b/African_landscape.jpg","GUID","20123","20","must be formatted exactly thusly: MM/DD/YYYY","??","??","?? maybe 1=Clinical; 2=Healthy control","integer number of months","1","0","1"
"null","<img style='border: 5px solid #ffffff; padding-right:15px;' src='stim/b/closeWater_pines_mountains.jpg'><img style='width:150px; height:150px; padding-right: 50px; padding-left: 50px; margin-bottom: 50px;' src='stim/winwin.bmp'><img style='border: 5px solid #808080;'src='stim/b/African_landscape.jpg'>","null","html-keyboard-response","12","6233","0.0-7.0-2.1","","","","","","","","","","","","","","","","","","","","","",""
"null","<img style='width:200px; height:200px; margin-left: 95px; margin-right: 95px;' src='stim/fixation.png'>","null","html-keyboard-response","13","7237","0.0-7.0-0.2","","","","","","","","","","","","","","","","","","","","","",""
"387.6849999651313","<img src='stim/b/African_landscape.jpg'><img style='width:200px; height:200px; margin-bottom: 0px;' src='stim/fixation.png'><img src='stim/b/closeWater_pines_mountains.jpg'>","49","html-keyboard-response","14","7627","0.0-7.0-1.2","practice","ab","1","valid","6","a","win:stay","49","stim/b/African_landscape.jpg","stim/b/closeWater_pines_mountains.jpg","stim/b/African_landscape.jpg","GUID","20123","20","must be formatted exactly thusly: MM/DD/YYYY","??","??","?? maybe 1=Clinical; 2=Healthy control","integer number of months","2","0","1"
"null","<img style='border: 5px solid #808080;' src='stim/b/African_landscape.jpg'><img style='width:150px; height:150px; padding-right: 50px; padding-left: 50px; margin-bottom: 50px;' src='stim/winwin.bmp'><img style='border: 5px solid #ffffff;  padding-left:15px;' src='stim/b/closeWater_pines_mountains.jpg'>","null","html-keyboard-response","15","8633","0.0-7.0-2.2","","","","","","","","","","","","","","","","","","","","","",""
"null","<img style='width:200px; height:200px; margin-left: 95px; margin-right: 95px;' src='stim/fixation.png'>","null","html-keyboard-response","16","9637","0.0-7.0-0.3","","","","","","","","","","","","","","","","","","","","","",""
"623.444999800995","<img src='stim/b/Trees_with_flowers.jpg'><img style='width:200px; height:200px; margin-bottom: 0px;' src='stim/fixation.png'><img src='stim/b/wheat_with_farmhouse.jpg'>","49","html-keyboard-response","17","10262","0.0-7.0-1.3","practice","ef","1","valid","6","e","avoid:lose","49","stim/b/Trees_with_flowers.jpg","stim/b/wheat_with_farmhouse.jpg","stim/b/Trees_with_flowers.jpg","GUID","20123","20","must be formatted exactly thusly: MM/DD/YYYY","??","??","?? maybe 1=Clinical; 2=Healthy control","integer number of months","3","0","1"
"null","<img style='border: 5px solid #808080;' src='stim/b/Trees_with_flowers.jpg'><img style='width:150px; height:150px; padding-right: 50px; padding-left: 50px; margin-bottom: 50px;' src='stim/keep_money.png'><img style='border: 5px solid #ffffff;  padding-left:15px;' src='stim/b/wheat_with_farmhouse.jpg'>","null","html-keyboard-response","18","11268","0.0-7.0-2.3","","","","","","","","","","","","","","","","","","","","","",""
"null","<img style='width:200px; height:200px; margin-left: 95px; margin-right: 95px;' src='stim/fixation.png'>","null","html-keyboard-response","19","12272","0.0-7.0-0.4","","","","","","","","","","","","","","","","","","","","","",""
"359.3250000849366","<img src='stim/b/African_landscape.jpg'><img style='width:200px; height:200px; margin-bottom: 0px;' src='stim/fixation.png'><img src='stim/b/closeWater_pines_mountains.jpg'>","49","html-keyboard-response","20","12634","0.0-7.0-1.4","practice","ab","1","valid","6","a","win:stay","49","stim/b/African_landscape.jpg","stim/b/closeWater_pines_mountains.jpg","stim/b/African_landscape.jpg","GUID","20123","20","must be formatted exactly thusly: MM/DD/YYYY","??","??","?? maybe 1=Clinical; 2=Healthy control","integer number of months","4","0","1"
"null","<img style='border: 5px solid #808080;' src='stim/b/African_landscape.jpg'><img style='width:150px; height:150px; padding-right: 50px; padding-left: 50px; margin-bottom: 50px;' src='stim/winwin.bmp'><img style='border: 5px solid #ffffff;  padding-left:15px;' src='stim/b/closeWater_pines_mountains.jpg'>","null","html-keyboard-response","21","13640","0.0-7.0-2.4","","","","","","","","","","","","","","","","","","","","","",""
"null","<img style='width:200px; height:200px; margin-left: 95px; margin-right: 95px;' src='stim/fixation.png'>","null","html-keyboard-response","22","14644","0.0-7.0-0.5","","","","","","","","","","","","","","","","","","","","","",""
"340.6199999153614","<img src='stim/b/Trees_with_flowers.jpg'><img style='width:200px; height:200px; margin-bottom: 0px;' src='stim/fixation.png'><img src='stim/b/wheat_with_farmhouse.jpg'>","50","html-keyboard-response","23","14987","0.0-7.0-1.5","practice","ef","1","valid","6","e","avoid:lose","49","stim/b/Trees_with_flowers.jpg","stim/b/wheat_with_farmhouse.jpg","stim/b/Trees_with_flowers.jpg","GUID","20123","20","must be formatted exactly thusly: MM/DD/YYYY","??","??","?? maybe 1=Clinical; 2=Healthy control","integer number of months","5","0","0"
"null","<img style='border: 5px solid #ffffff; padding-right:15px;' src='stim/b/Trees_with_flowers.jpg'><img style='width:150px; height:150px; padding-right: 50px; padding-left: 50px; margin-bottom: 50px;' src='stim/loselose.bmp'><img style='border: 5px solid #808080;'src='stim/b/wheat_with_farmhouse.jpg'>","null","html-keyboard-response","24","15990","0.0-7.0-2.5","","","","","","","","","","","","","","","","","","","","","",""
"null","<img style='width:200px; height:200px; margin-left: 95px; margin-right: 95px;' src='stim/fixation.png'>","null","html-keyboard-response","25","16995","0.0-7.0-0.6","","","","","","","","","","","","","","","","","","","","","",""
"395.9199998062104","<img src='stim/b/closeWater_pines_mountains.jpg'><img style='width:200px; height:200px; margin-bottom: 0px;' src='stim/fixation.png'><img src='stim/b/African_landscape.jpg'>","49","html-keyboard-response","26","17393","0.0-7.0-1.6","practice","ab","1","valid","6","a","win:stay","50","stim/b/closeWater_pines_mountains.jpg","stim/b/African_landscape.jpg","stim/b/African_landscape.jpg","GUID","20123","20","must be formatted exactly thusly: MM/DD/YYYY","??","??","?? maybe 1=Clinical; 2=Healthy control","integer number of months","6","0","0"
"null","<img style='border: 5px solid #808080;' src='stim/b/closeWater_pines_mountains.jpg'><img style='width:150px; height:150px; padding-right: 50px; padding-left: 50px; margin-bottom: 50px;' src='stim/not_winner.png'><img style='border: 5px solid #ffffff;  padding-left:15px;' src='stim/b/African_landscape.jpg'>","null","html-keyboard-response","27","18399","0.0-7.0-2.6","","","","","","","","","","","","","","","","","","","","","",""
"null","<img style='width:200px; height:200px; margin-left: 95px; margin-right: 95px;' src='stim/fixation.png'>","null","html-keyboard-response","28","19405","0.0-7.0-0.7","","","","","","","","","","","","","","","","","","","","","",""
"287.0849999599159","<img src='stim/b/Trees_with_flowers.jpg'><img style='width:200px; height:200px; margin-bottom: 0px;' src='stim/fixation.png'><img src='stim/b/wheat_with_farmhouse.jpg'>","50","html-keyboard-response","29","19695","0.0-7.0-1.7","practice","ef","1","valid","6","e","avoid:lose","49","stim/b/Trees_with_flowers.jpg","stim/b/wheat_with_farmhouse.jpg","stim/b/Trees_with_flowers.jpg","GUID","20123","20","must be formatted exactly thusly: MM/DD/YYYY","??","??","?? maybe 1=Clinical; 2=Healthy control","integer number of months","7","0","0"
"null","<img style='border: 5px solid #ffffff; padding-right:15px;' src='stim/b/Trees_with_flowers.jpg'><img style='width:150px; height:150px; padding-right: 50px; padding-left: 50px; margin-bottom: 50px;' src='stim/loselose.bmp'><img style='border: 5px solid #808080;'src='stim/b/wheat_with_farmhouse.jpg'>","null","html-keyboard-response","30","20700","0.0-7.0-2.7","","","","","","","","","","","","","","","","","","","","","",""
"null","<img style='width:200px; height:200px; margin-left: 95px; margin-right: 95px;' src='stim/fixation.png'>","null","html-keyboard-response","31","21705","0.0-7.0-0.8","","","","","","","","","","","","","","","","","","","","","",""
"289.0299998689443","<img src='stim/b/wheat_with_farmhouse.jpg'><img style='width:200px; height:200px; margin-bottom: 0px;' src='stim/fixation.png'><img src='stim/b/Trees_with_flowers.jpg'>","49","html-keyboard-response","32","21997","0.0-7.0-1.8","practice","ef","1","valid","6","e","avoid:lose","50","stim/b/wheat_with_farmhouse.jpg","stim/b/Trees_with_flowers.jpg","stim/b/Trees_with_flowers.jpg","GUID","20123","20","must be formatted exactly thusly: MM/DD/YYYY","??","??","?? maybe 1=Clinical; 2=Healthy control","integer number of months","8","0","0"
"null","<img style='border: 5px solid #808080;' src='stim/b/wheat_with_farmhouse.jpg'><img style='width:150px; height:150px; padding-right: 50px; padding-left: 50px; margin-bottom: 50px;' src='stim/loselose.bmp'><img style='border: 5px solid #ffffff;  padding-left:15px;' src='stim/b/Trees_with_flowers.jpg'>","null","html-keyboard-response","33","23004","0.0-7.0-2.8","","","","","","","","","","","","","","","","","","","","","",""
"null","<img style='width:200px; height:200px; margin-left: 95px; margin-right: 95px;' src='stim/fixation.png'>","null","html-keyboard-response","34","24011","0.0-7.0-0.9","","","","","","","","","","","","","","","","","","","","","",""
"310.87000016123056","<img src='stim/b/African_landscape.jpg'><img style='width:200px; height:200px; margin-bottom: 0px;' src='stim/fixation.png'><img src='stim/b/closeWater_pines_mountains.jpg'>","50","html-keyboard-response","35","24324","0.0-7.0-1.9","practice","ab","1","valid","6","a","win:stay","49","stim/b/African_landscape.jpg","stim/b/closeWater_pines_mountains.jpg","stim/b/African_landscape.jpg","GUID","20123","20","must be formatted exactly thusly: MM/DD/YYYY","??","??","?? maybe 1=Clinical; 2=Healthy control","integer number of months","9","0","0"
"null","<img style='border: 5px solid #ffffff; padding-right:15px;' src='stim/b/African_landscape.jpg'><img style='width:150px; height:150px; padding-right: 50px; padding-left: 50px; margin-bottom: 50px;' src='stim/not_winner.png'><img style='border: 5px solid #808080;'src='stim/b/closeWater_pines_mountains.jpg'>","null","html-keyboard-response","36","25328","0.0-7.0-2.9","","","","","","","","","","","","","","","","","","","","","",""
"null","<img style='width:200px; height:200px; margin-left: 95px; margin-right: 95px;' src='stim/fixation.png'>","null","html-keyboard-response","37","26331","0.0-7.0-0.10","","","","","","","","","","","","","","","","","","","","","",""
"431.45999987609684","<img src='stim/b/closeWater_pines_mountains.jpg'><img style='width:200px; height:200px; margin-bottom: 0px;' src='stim/fixation.png'><img src='stim/b/African_landscape.jpg'>","49","html-keyboard-response","38","26765","0.0-7.0-1.10","practice","ab","1","valid","6","a","win:stay","50","stim/b/closeWater_pines_mountains.jpg","stim/b/African_landscape.jpg","stim/b/African_landscape.jpg","GUID","20123","20","must be formatted exactly thusly: MM/DD/YYYY","??","??","?? maybe 1=Clinical; 2=Healthy control","integer number of months","10","0","0"
"null","<img style='border: 5px solid #808080;' src='stim/b/closeWater_pines_mountains.jpg'><img style='width:150px; height:150px; padding-right: 50px; padding-left: 50px; margin-bottom: 50px;' src='stim/not_winner.png'><img style='border: 5px solid #ffffff;  padding-left:15px;' src='stim/b/African_landscape.jpg'>","null","html-keyboard-response","39","27770","0.0-7.0-2.10","","","","","","","","","","","","","","","","","","","","","",""
"null","<img style='width:200px; height:200px; margin-left: 95px; margin-right: 95px;' src='stim/fixation.png'>","null","html-keyboard-response","40","28774","0.0-7.0-0.11","","","","","","","","","","","","","","","","","","","","","",""
"698936.8650000542","<img src='stim/b/wheat_with_farmhouse.jpg'><img style='width:200px; height:200px; margin-bottom: 0px;' src='stim/fixation.png'><img src='stim/b/Trees_with_flowers.jpg'>","49","html-keyboard-response","41","727734","0.0-7.0-1.11","practice","ef","1","valid","6","e","avoid:lose","50","stim/b/wheat_with_farmhouse.jpg","stim/b/Trees_with_flowers.jpg","stim/b/Trees_with_flowers.jpg","GUID","20123","20","must be formatted exactly thusly: MM/DD/YYYY","??","??","?? maybe 1=Clinical; 2=Healthy control","integer number of months","11","0","0"
"null","<img style='border: 5px solid #808080;' src='stim/b/wheat_with_farmhouse.jpg'><img style='width:150px; height:150px; padding-right: 50px; padding-left: 50px; margin-bottom: 50px;' src='stim/loselose.bmp'><img style='border: 5px solid #ffffff;  padding-left:15px;' src='stim/b/Trees_with_flowers.jpg'>","null","html-keyboard-response","42","728739","0.0-7.0-2.11","","","","","","","","","","","","","","","","","","","","","",""
"1036.7000000551343","<p>Great!</p> <p>Press the spacebar continue.</p>","32","html-keyboard-response","43","730281","0.0-8.0","","","","","","","","","","","","","","","","","","","","","",""
"1378.7200001534075","<p>Now you will see some more pictures.</p><p>Do as before by pressing the 1 to choose the picture on the left, and pressing the 0 to choose the picture on the right.</p><p>Press the spacebar continue.</p>","32","html-keyboard-response","44","731661","0.0-9.0","","","","","","","","","","","","","","","","","","","","","",""
"3712.200000183657","<h3 style=""color:red;"">For the picture pairs where you can win money:</h3><p>You will not win every time you choose the ""best"" picture;</p><p>However, one picture gets rewarded much more often than the other picture.</p><h3 style=""color:red;"">For the picture pairs where the best you can do is keep your money:</h3><p>You will not be able to keep your money every time you choose the ""best"" picture;</p><p>However, one picture allows you to keep your money much more often than the other picture.</p><p>Press the spacebar continue.</p>","32","html-keyboard-response","45","735374","0.0-10.0","","","","","","","","","","","","","","","","","","","","","",""
"913.6349998880178","<p>Press the spacebar when you are ready to begin.</p>","32","html-keyboard-response","46","736289","0.0-11.0","","","","","","","","","","","","","","","","","","","","","",""
"null","<img style='width:200px; height:200px; margin-left: 95px; margin-right: 95px;' src='stim/fixation.png'>","null","html-keyboard-response","47","736791","0.0-12.0-0.0","","","","","","","","","","","","","","","","","","","","","",""
"2010.105000110343","<img src='stim/b/lsingeltree_tallergrass_clouds.jpg'><img style='width:200px; height:200px; margin-bottom: 0px;' src='stim/fixation.png'><img src='stim/b/orangey_field.jpg'>","50","html-keyboard-response","48","738803","0.0-12.0-1.0","training","cd","0.8","valid","10","c","win:stay","49","stim/b/lsingeltree_tallergrass_clouds.jpg","stim/b/orangey_field.jpg","stim/b/lsingeltree_tallergrass_clouds.jpg","GUID","20123","20","must be formatted exactly thusly: MM/DD/YYYY","??","??","?? maybe 1=Clinical; 2=Healthy control","integer number of months","0","0","0"
"null","<img style='border: 5px solid #ffffff; padding-right:15px;' src='stim/b/lsingeltree_tallergrass_clouds.jpg'><img style='width:150px; height:150px; padding-right: 50px; padding-left: 50px; margin-bottom: 50px;' src='stim/not_winner.png'><img style='border: 5px solid #808080;'src='stim/b/orangey_field.jpg'>","null","html-keyboard-response","49","739808","0.0-12.0-2.0","","","","","","","","","","","","","","","","","","","","","",""
"null","<img style='width:200px; height:200px; margin-left: 95px; margin-right: 95px;' src='stim/fixation.png'>","null","html-keyboard-response","50","740815","0.0-12.0-0.1","","","","","","","","","","","","","","","","","","","","","",""
"420.5400000791997","<img src='stim/b/3d-landscape-background-10.jpg'><img style='width:200px; height:200px; margin-bottom: 0px;' src='stim/fixation.png'><img src='stim/b/2822landscape.jpg'>","49","html-keyboard-response","51","741237","0.0-12.0-1.1","training","ab","0.9","valid","10","a","win:stay","49","stim/b/3d-landscape-background-10.jpg","stim/b/2822landscape.jpg","stim/b/3d-landscape-background-10.jpg","GUID","20123","20","must be formatted exactly thusly: MM/DD/YYYY","??","??","?? maybe 1=Clinical; 2=Healthy control","integer number of months","1","0","1"
"null","<img style='border: 5px solid #808080;' src='stim/b/3d-landscape-background-10.jpg'><img style='width:150px; height:150px; padding-right: 50px; padding-left: 50px; margin-bottom: 50px;' src='stim/winwin.bmp'><img style='border: 5px solid #ffffff;  padding-left:15px;' src='stim/b/2822landscape.jpg'>","null","html-keyboard-response","52","742244","0.0-12.0-2.1","","","","","","","","","","","","","","","","","","","","","",""
"null","<img style='width:200px; height:200px; margin-left: 95px; margin-right: 95px;' src='stim/fixation.png'>","null","html-keyboard-response","53","743249","0.0-12.0-0.2","","","","","","","","","","","","","","","","","","","","","",""
"332.95000018551946","<img src='stim/b/waterfall_waterBelow.jpg'><img style='width:200px; height:200px; margin-bottom: 0px;' src='stim/fixation.png'><img src='stim/b/water_pines_snowy_moutain.jpg'>","50","html-keyboard-response","54","743584","0.0-12.0-1.2","training","gh","0.8","invalid","10","g","avoid:lose","50","stim/b/waterfall_waterBelow.jpg","stim/b/water_pines_snowy_moutain.jpg","stim/b/water_pines_snowy_moutain.jpg","GUID","20123","20","must be formatted exactly thusly: MM/DD/YYYY","??","??","?? maybe 1=Clinical; 2=Healthy control","integer number of months","2","0","1"
"null","<img style='border: 5px solid #ffffff; padding-right:15px;' src='stim/b/waterfall_waterBelow.jpg'><img style='width:150px; height:150px; padding-right: 50px; padding-left: 50px; margin-bottom: 50px;' src='stim/loselose.bmp'><img style='border: 5px solid #808080;'src='stim/b/water_pines_snowy_moutain.jpg'>","null","html-keyboard-response","55","744589","0.0-12.0-2.2","","","","","","","","","","","","","","","","","","","","","",""
"null","<img style='width:200px; height:200px; margin-left: 95px; margin-right: 95px;' src='stim/fixation.png'>","null","html-keyboard-response","56","745594","0.0-12.0-0.3","","","","","","","","","","","","","","","","","","","","","",""
"461.9900002144277","<img src='stim/b/water_fall_images.jpg'><img style='width:200px; height:200px; margin-bottom: 0px;' src='stim/fixation.png'><img src='stim/b/water_pines_distantMountains.jpg'>","49","html-keyboard-response","57","746058","0.0-12.0-1.3","training","ef","0.9","valid","10","e","avoid:lose","49","stim/b/water_fall_images.jpg","stim/b/water_pines_distantMountains.jpg","stim/b/water_fall_images.jpg","GUID","20123","20","must be formatted exactly thusly: MM/DD/YYYY","??","??","?? maybe 1=Clinical; 2=Healthy control","integer number of months","3","0","1"
"null","<img style='border: 5px solid #808080;' src='stim/b/water_fall_images.jpg'><img style='width:150px; height:150px; padding-right: 50px; padding-left: 50px; margin-bottom: 50px;' src='stim/keep_money.png'><img style='border: 5px solid #ffffff;  padding-left:15px;' src='stim/b/water_pines_distantMountains.jpg'>","null","html-keyboard-response","58","747065","0.0-12.0-2.3","","","","","","","","","","","","","","","","","","","","","",""
"null","<img style='width:200px; height:200px; margin-left: 95px; margin-right: 95px;' src='stim/fixation.png'>","null","html-keyboard-response","59","748071","0.0-12.0-0.4","","","","","","","","","","","","","","","","","","","","","",""
"307.3750000912696","<img src='stim/b/water_pines_distantMountains.jpg'><img style='width:200px; height:200px; margin-bottom: 0px;' src='stim/fixation.png'><img src='stim/b/water_fall_images.jpg'>","50","html-keyboard-response","60","748380","0.0-12.0-1.4","training","ef","0.9","valid","10","e","avoid:lose","50","stim/b/water_pines_distantMountains.jpg","stim/b/water_fall_images.jpg","stim/b/water_fall_images.jpg","GUID","20123","20","must be formatted exactly thusly: MM/DD/YYYY","??","??","?? maybe 1=Clinical; 2=Healthy control","integer number of months","4","0","1"
"null","<img style='border: 5px solid #ffffff; padding-right:15px;' src='stim/b/water_pines_distantMountains.jpg'><img style='width:150px; height:150px; padding-right: 50px; padding-left: 50px; margin-bottom: 50px;' src='stim/keep_money.png'><img style='border: 5px solid #808080;'src='stim/b/water_fall_images.jpg'>","null","html-keyboard-response","61","749385","0.0-12.0-2.4","","","","","","","","","","","","","","","","","","","","","",""
"null","<img style='width:200px; height:200px; margin-left: 95px; margin-right: 95px;' src='stim/fixation.png'>","null","html-keyboard-response","62","750389","0.0-12.0-0.5","","","","","","","","","","","","","","","","","","","","","",""
"347.74999995715916","<img src='stim/b/waterfall_waterBelow.jpg'><img style='width:200px; height:200px; margin-bottom: 0px;' src='stim/fixation.png'><img src='stim/b/water_pines_snowy_moutain.jpg'>","49","html-keyboard-response","63","750739","0.0-12.0-1.5","training","gh","0.8","valid","10","g","avoid:lose","50","stim/b/waterfall_waterBelow.jpg","stim/b/water_pines_snowy_moutain.jpg","stim/b/water_pines_snowy_moutain.jpg","GUID","20123","20","must be formatted exactly thusly: MM/DD/YYYY","??","??","?? maybe 1=Clinical; 2=Healthy control","integer number of months","5","0","0"
"null","<img style='border: 5px solid #808080;' src='stim/b/waterfall_waterBelow.jpg'><img style='width:150px; height:150px; padding-right: 50px; padding-left: 50px; margin-bottom: 50px;' src='stim/loselose.bmp'><img style='border: 5px solid #ffffff;  padding-left:15px;' src='stim/b/water_pines_snowy_moutain.jpg'>","null","html-keyboard-response","64","751745","0.0-12.0-2.5","","","","","","","","","","","","","","","","","","","","","",""
"null","<img style='width:200px; height:200px; margin-left: 95px; margin-right: 95px;' src='stim/fixation.png'>","null","html-keyboard-response","65","752749","0.0-12.0-0.6","","","","","","","","","","","","","","","","","","","","","",""
"579.2150001507252","<img src='stim/b/orangey_field.jpg'><img style='width:200px; height:200px; margin-bottom: 0px;' src='stim/fixation.png'><img src='stim/b/lsingeltree_tallergrass_clouds.jpg'>","49","html-keyboard-response","66","753330","0.0-12.0-1.6","training","cd","0.8","valid","10","c","win:stay","50","stim/b/orangey_field.jpg","stim/b/lsingeltree_tallergrass_clouds.jpg","stim/b/lsingeltree_tallergrass_clouds.jpg","GUID","20123","20","must be formatted exactly thusly: MM/DD/YYYY","??","??","?? maybe 1=Clinical; 2=Healthy control","integer number of months","6","0","0"
"null","<img style='border: 5px solid #808080;' src='stim/b/orangey_field.jpg'><img style='width:150px; height:150px; padding-right: 50px; padding-left: 50px; margin-bottom: 50px;' src='stim/not_winner.png'><img style='border: 5px solid #ffffff;  padding-left:15px;' src='stim/b/lsingeltree_tallergrass_clouds.jpg'>","null","html-keyboard-response","67","754335","0.0-12.0-2.6","","","","","","","","","","","","","","","","","","","","","",""
"null","<img style='width:200px; height:200px; margin-left: 95px; margin-right: 95px;' src='stim/fixation.png'>","null","html-keyboard-response","68","755340","0.0-12.0-0.7","","","","","","","","","","","","","","","","","","","","","",""
"283.01999997347593","<img src='stim/b/2822landscape.jpg'><img style='width:200px; height:200px; margin-bottom: 0px;' src='stim/fixation.png'><img src='stim/b/3d-landscape-background-10.jpg'>","50","html-keyboard-response","69","755625","0.0-12.0-1.7","training","ab","0.9","valid","10","a","win:stay","50","stim/b/2822landscape.jpg","stim/b/3d-landscape-background-10.jpg","stim/b/3d-landscape-background-10.jpg","GUID","20123","20","must be formatted exactly thusly: MM/DD/YYYY","??","??","?? maybe 1=Clinical; 2=Healthy control","integer number of months","7","0","1"
"null","<img style='border: 5px solid #ffffff; padding-right:15px;' src='stim/b/2822landscape.jpg'><img style='width:150px; height:150px; padding-right: 50px; padding-left: 50px; margin-bottom: 50px;' src='stim/winwin.bmp'><img style='border: 5px solid #808080;'src='stim/b/3d-landscape-background-10.jpg'>","null","html-keyboard-response","70","756629","0.0-12.0-2.7","","","","","","","","","","","","","","","","","","","","","",""
"null","<img style='width:200px; height:200px; margin-left: 95px; margin-right: 95px;' src='stim/fixation.png'>","null","html-keyboard-response","71","757634","0.0-12.0-0.8","","","","","","","","","","","","","","","","","","","","","",""
"361.8049998767674","<img src='stim/b/waterfall_waterBelow.jpg'><img style='width:200px; height:200px; margin-bottom: 0px;' src='stim/fixation.png'><img src='stim/b/water_pines_snowy_moutain.jpg'>","49","html-keyboard-response","72","757998","0.0-12.0-1.8","training","gh","0.8","valid","10","g","avoid:lose","50","stim/b/waterfall_waterBelow.jpg","stim/b/water_pines_snowy_moutain.jpg","stim/b/water_pines_snowy_moutain.jpg","GUID","20123","20","must be formatted exactly thusly: MM/DD/YYYY","??","??","?? maybe 1=Clinical; 2=Healthy control","integer number of months","8","0","0"
"null","<img style='border: 5px solid #808080;' src='stim/b/waterfall_waterBelow.jpg'><img style='width:150px; height:150px; padding-right: 50px; padding-left: 50px; margin-bottom: 50px;' src='stim/loselose.bmp'><img style='border: 5px solid #ffffff;  padding-left:15px;' src='stim/b/water_pines_snowy_moutain.jpg'>","null","html-keyboard-response","73","759001","0.0-12.0-2.8","","","","","","","","","","","","","","","","","","","","","",""
"null","<img style='width:200px; height:200px; margin-left: 95px; margin-right: 95px;' src='stim/fixation.png'>","null","html-keyboard-response","74","760003","0.0-12.0-0.9","","","","","","","","","","","","","","","","","","","","","",""
"402.72000012919307","<img src='stim/b/3d-landscape-background-10.jpg'><img style='width:200px; height:200px; margin-bottom: 0px;' src='stim/fixation.png'><img src='stim/b/2822landscape.jpg'>","50","html-keyboard-response","75","760408","0.0-12.0-1.9","training","ab","0.9","valid","10","a","win:stay","49","stim/b/3d-landscape-background-10.jpg","stim/b/2822landscape.jpg","stim/b/3d-landscape-background-10.jpg","GUID","20123","20","must be formatted exactly thusly: MM/DD/YYYY","??","??","?? maybe 1=Clinical; 2=Healthy control","integer number of months","9","0","0"
"null","<img style='border: 5px solid #ffffff; padding-right:15px;' src='stim/b/3d-landscape-background-10.jpg'><img style='width:150px; height:150px; padding-right: 50px; padding-left: 50px; margin-bottom: 50px;' src='stim/not_winner.png'><img style='border: 5px solid #808080;'src='stim/b/2822landscape.jpg'>","null","html-keyboard-response","76","761415","0.0-12.0-2.9","","","","","","","","","","","","","","","","","","","","","",""
"null","<img style='width:200px; height:200px; margin-left: 95px; margin-right: 95px;' src='stim/fixation.png'>","null","html-keyboard-response","77","762421","0.0-12.0-0.10","","","","","","","","","","","","","","","","","","","","","",""
"343.15999993123114","<img src='stim/b/water_pines_distantMountains.jpg'><img style='width:200px; height:200px; margin-bottom: 0px;' src='stim/fixation.png'><img src='stim/b/water_fall_images.jpg'>","50","html-keyboard-response","78","762766","0.0-12.0-1.10","training","ef","0.9","valid","10","e","avoid:lose","50","stim/b/water_pines_distantMountains.jpg","stim/b/water_fall_images.jpg","stim/b/water_fall_images.jpg","GUID","20123","20","must be formatted exactly thusly: MM/DD/YYYY","??","??","?? maybe 1=Clinical; 2=Healthy control","integer number of months","10","0","1"
"null","<img style='border: 5px solid #ffffff; padding-right:15px;' src='stim/b/water_pines_distantMountains.jpg'><img style='width:150px; height:150px; padding-right: 50px; padding-left: 50px; margin-bottom: 50px;' src='stim/keep_money.png'><img style='border: 5px solid #808080;'src='stim/b/water_fall_images.jpg'>","null","html-keyboard-response","79","763773","0.0-12.0-2.10","","","","","","","","","","","","","","","","","","","","","",""
"null","<img style='width:200px; height:200px; margin-left: 95px; margin-right: 95px;' src='stim/fixation.png'>","null","html-keyboard-response","80","764779","0.0-12.0-0.11","","","","","","","","","","","","","","","","","","","","","",""
"310.25000009685755","<img src='stim/b/orangey_field.jpg'><img style='width:200px; height:200px; margin-bottom: 0px;' src='stim/fixation.png'><img src='stim/b/lsingeltree_tallergrass_clouds.jpg'>","50","html-keyboard-response","81","765092","0.0-12.0-1.11","training","cd","0.8","invalid","10","c","win:stay","50","stim/b/orangey_field.jpg","stim/b/lsingeltree_tallergrass_clouds.jpg","stim/b/lsingeltree_tallergrass_clouds.jpg","GUID","20123","20","must be formatted exactly thusly: MM/DD/YYYY","??","??","?? maybe 1=Clinical; 2=Healthy control","integer number of months","11","0","1"
"null","<img style='border: 5px solid #ffffff; padding-right:15px;' src='stim/b/orangey_field.jpg'><img style='width:150px; height:150px; padding-right: 50px; padding-left: 50px; margin-bottom: 50px;' src='stim/not_winner.png'><img style='border: 5px solid #808080;'src='stim/b/lsingeltree_tallergrass_clouds.jpg'>","null","html-keyboard-response","82","766097","0.0-12.0-2.11","","","","","","","","","","","","","","","","","","","","","",""
"null","<img style='width:200px; height:200px; margin-left: 95px; margin-right: 95px;' src='stim/fixation.png'>","null","html-keyboard-response","83","767103","0.0-12.0-0.12","","","","","","","","","","","","","","","","","","","","","",""
"233.269999967888","<img src='stim/b/lsingeltree_tallergrass_clouds.jpg'><img style='width:200px; height:200px; margin-bottom: 0px;' src='stim/fixation.png'><img src='stim/b/orangey_field.jpg'>","49","html-keyboard-response","84","767339","0.0-12.0-1.12","training","cd","0.8","invalid","10","c","win:stay","49","stim/b/lsingeltree_tallergrass_clouds.jpg","stim/b/orangey_field.jpg","stim/b/lsingeltree_tallergrass_clouds.jpg","GUID","20123","20","must be formatted exactly thusly: MM/DD/YYYY","??","??","?? maybe 1=Clinical; 2=Healthy control","integer number of months","12","0","1"
"null","<img style='border: 5px solid #808080;' src='stim/b/lsingeltree_tallergrass_clouds.jpg'><img style='width:150px; height:150px; padding-right: 50px; padding-left: 50px; margin-bottom: 50px;' src='stim/not_winner.png'><img style='border: 5px solid #ffffff;  padding-left:15px;' src='stim/b/orangey_field.jpg'>","null","html-keyboard-response","85","768345","0.0-12.0-2.12","","","","","","","","","","","","","","","","","","","","","",""
"null","<img style='width:200px; height:200px; margin-left: 95px; margin-right: 95px;' src='stim/fixation.png'>","null","html-keyboard-response","86","769351","0.0-12.0-0.13","","","","","","","","","","","","","","","","","","","","","",""
"411.23999981209636","<img src='stim/b/2822landscape.jpg'><img style='width:200px; height:200px; margin-bottom: 0px;' src='stim/fixation.png'><img src='stim/b/3d-landscape-background-10.jpg'>","50","html-keyboard-response","87","769764","0.0-12.0-1.13","training","ab","0.9","valid","10","a","win:stay","50","stim/b/2822landscape.jpg","stim/b/3d-landscape-background-10.jpg","stim/b/3d-landscape-background-10.jpg","GUID","20123","20","must be formatted exactly thusly: MM/DD/YYYY","??","??","?? maybe 1=Clinical; 2=Healthy control","integer number of months","13","0","1"
"null","<img style='border: 5px solid #ffffff; padding-right:15px;' src='stim/b/2822landscape.jpg'><img style='width:150px; height:150px; padding-right: 50px; padding-left: 50px; margin-bottom: 50px;' src='stim/winwin.bmp'><img style='border: 5px solid #808080;'src='stim/b/3d-landscape-background-10.jpg'>","null","html-keyboard-response","88","770772","0.0-12.0-2.13","","","","","","","","","","","","","","","","","","","","","",""
"null","<img style='width:200px; height:200px; margin-left: 95px; margin-right: 95px;' src='stim/fixation.png'>","null","html-keyboard-response","89","771780","0.0-12.0-0.14","","","","","","","","","","","","","","","","","","","","","",""
"143.7800000421703","<img src='stim/b/water_fall_images.jpg'><img style='width:200px; height:200px; margin-bottom: 0px;' src='stim/fixation.png'><img src='stim/b/water_pines_distantMountains.jpg'>","49","html-keyboard-response","90","771926","0.0-12.0-1.14","training","ef","0.9","valid","10","e","avoid:lose","49","stim/b/water_fall_images.jpg","stim/b/water_pines_distantMountains.jpg","stim/b/water_fall_images.jpg","GUID","20123","20","must be formatted exactly thusly: MM/DD/YYYY","??","??","?? maybe 1=Clinical; 2=Healthy control","integer number of months","14","0","1"
"null","<img style='border: 5px solid #808080;' src='stim/b/water_fall_images.jpg'><img style='width:150px; height:150px; padding-right: 50px; padding-left: 50px; margin-bottom: 50px;' src='stim/keep_money.png'><img style='border: 5px solid #ffffff;  padding-left:15px;' src='stim/b/water_pines_distantMountains.jpg'>","null","html-keyboard-response","91","772934","0.0-12.0-2.14","","","","","","","","","","","","","","","","","","","","","",""
"null","<img style='width:200px; height:200px; margin-left: 95px; margin-right: 95px;' src='stim/fixation.png'>","null","html-keyboard-response","92","773938","0.0-12.0-0.15","","","","","","","","","","","","","","","","","","","","","",""
"215.39000002667308","<img src='stim/b/water_pines_snowy_moutain.jpg'><img style='width:200px; height:200px; margin-bottom: 0px;' src='stim/fixation.png'><img src='stim/b/waterfall_waterBelow.jpg'>","50","html-keyboard-response","93","774156","0.0-12.0-1.15","training","gh","0.8","valid","10","g","avoid:lose","49","stim/b/waterfall_waterBelow.jpg","stim/b/water_pines_snowy_moutain.jpg","stim/b/water_pines_snowy_moutain.jpg","GUID","20123","20","must be formatted exactly thusly: MM/DD/YYYY","??","??","?? maybe 1=Clinical; 2=Healthy control","integer number of months","15","0","0"
"null","<img style='border: 5px solid #ffffff; padding-right:15px;' src='stim/b/water_pines_snowy_moutain.jpg'><img style='width:150px; height:150px; padding-right: 50px; padding-left: 50px; margin-bottom: 50px;' src='stim/loselose.bmp'><img style='border: 5px solid #808080;'src='stim/b/waterfall_waterBelow.jpg'>","null","html-keyboard-response","94","775161","0.0-12.0-2.15","","","","","","","","","","","","","","","","","","","","","",""
"null","<img style='width:200px; height:200px; margin-left: 95px; margin-right: 95px;' src='stim/fixation.png'>","null","html-keyboard-response","95","776167","0.0-12.0-0.16","","","","","","","","","","","","","","","","","","","","","",""
"345.31000000424683","<img src='stim/b/water_pines_distantMountains.jpg'><img style='width:200px; height:200px; margin-bottom: 0px;' src='stim/fixation.png'><img src='stim/b/water_fall_images.jpg'>","50","html-keyboard-response","96","776515","0.0-12.0-1.16","training","ef","0.9","valid","10","e","avoid:lose","50","stim/b/water_pines_distantMountains.jpg","stim/b/water_fall_images.jpg","stim/b/water_fall_images.jpg","GUID","20123","20","must be formatted exactly thusly: MM/DD/YYYY","??","??","?? maybe 1=Clinical; 2=Healthy control","integer number of months","16","0","1"
"null","<img style='border: 5px solid #ffffff; padding-right:15px;' src='stim/b/water_pines_distantMountains.jpg'><img style='width:150px; height:150px; padding-right: 50px; padding-left: 50px; margin-bottom: 50px;' src='stim/keep_money.png'><img style='border: 5px solid #808080;'src='stim/b/water_fall_images.jpg'>","null","html-keyboard-response","97","777521","0.0-12.0-2.16","","","","","","","","","","","","","","","","","","","","","",""
"null","<img style='width:200px; height:200px; margin-left: 95px; margin-right: 95px;' src='stim/fixation.png'>","null","html-keyboard-response","98","778525","0.0-12.0-0.17","","","","","","","","","","","","","","","","","","","","","",""
"457.5300000142306","<img src='stim/b/lsingeltree_tallergrass_clouds.jpg'><img style='width:200px; height:200px; margin-bottom: 0px;' src='stim/fixation.png'><img src='stim/b/orangey_field.jpg'>","49","html-keyboard-response","99","778984","0.0-12.0-1.17","training","cd","0.8","valid","10","c","win:stay","49","stim/b/lsingeltree_tallergrass_clouds.jpg","stim/b/orangey_field.jpg","stim/b/lsingeltree_tallergrass_clouds.jpg","GUID","20123","20","must be formatted exactly thusly: MM/DD/YYYY","??","??","?? maybe 1=Clinical; 2=Healthy control","integer number of months","17","0","1"
"null","<img style='border: 5px solid #808080;' src='stim/b/lsingeltree_tallergrass_clouds.jpg'><img style='width:150px; height:150px; padding-right: 50px; padding-left: 50px; margin-bottom: 50px;' src='stim/winwin.bmp'><img style='border: 5px solid #ffffff;  padding-left:15px;' src='stim/b/orangey_field.jpg'>","null","html-keyboard-response","100","779991","0.0-12.0-2.17","","","","","","","","","","","","","","","","","","","","","",""
"null","<img style='width:200px; height:200px; margin-left: 95px; margin-right: 95px;' src='stim/fixation.png'>","null","html-keyboard-response","101","780998","0.0-12.0-0.18","","","","","","","","","","","","","","","","","","","","","",""
"395.1149999629706","<img src='stim/b/water_pines_snowy_moutain.jpg'><img style='width:200px; height:200px; margin-bottom: 0px;' src='stim/fixation.png'><img src='stim/b/waterfall_waterBelow.jpg'>","50","html-keyboard-response","102","781395","0.0-12.0-1.18","training","gh","0.8","valid","10","g","avoid:lose","49","stim/b/waterfall_waterBelow.jpg","stim/b/water_pines_snowy_moutain.jpg","stim/b/water_pines_snowy_moutain.jpg","GUID","20123","20","must be formatted exactly thusly: MM/DD/YYYY","??","??","?? maybe 1=Clinical; 2=Healthy control","integer number of months","18","0","0"
"null","<img style='border: 5px solid #ffffff; padding-right:15px;' src='stim/b/water_pines_snowy_moutain.jpg'><img style='width:150px; height:150px; padding-right: 50px; padding-left: 50px; margin-bottom: 50px;' src='stim/loselose.bmp'><img style='border: 5px solid #808080;'src='stim/b/waterfall_waterBelow.jpg'>","null","html-keyboard-response","103","782400","0.0-12.0-2.18","","","","","","","","","","","","","","","","","","","","","",""
"null","<img style='width:200px; height:200px; margin-left: 95px; margin-right: 95px;' src='stim/fixation.png'>","null","html-keyboard-response","104","783407","0.0-12.0-0.19","","","","","","","","","","","","","","","","","","","","","",""
"360.0449999794364","<img src='stim/b/2822landscape.jpg'><img style='width:200px; height:200px; margin-bottom: 0px;' src='stim/fixation.png'><img src='stim/b/3d-landscape-background-10.jpg'>","50","html-keyboard-response","105","783769","0.0-12.0-1.19","training","ab","0.9","invalid","10","a","win:stay","50","stim/b/2822landscape.jpg","stim/b/3d-landscape-background-10.jpg","stim/b/3d-landscape-background-10.jpg","GUID","20123","20","must be formatted exactly thusly: MM/DD/YYYY","??","??","?? maybe 1=Clinical; 2=Healthy control","integer number of months","19","0","1"
"null","<img style='border: 5px solid #ffffff; padding-right:15px;' src='stim/b/2822landscape.jpg'><img style='width:150px; height:150px; padding-right: 50px; padding-left: 50px; margin-bottom: 50px;' src='stim/not_winner.png'><img style='border: 5px solid #808080;'src='stim/b/3d-landscape-background-10.jpg'>","null","html-keyboard-response","106","784777","0.0-12.0-2.19","","","","","","","","","","","","","","","","","","","","","",""
"null","<img style='width:200px; height:200px; margin-left: 95px; margin-right: 95px;' src='stim/fixation.png'>","null","html-keyboard-response","107","785782","0.0-12.0-0.20","","","","","","","","","","","","","","","","","","","","","",""
"395.31999989412725","<img src='stim/b/lsingeltree_tallergrass_clouds.jpg'><img style='width:200px; height:200px; margin-bottom: 0px;' src='stim/fixation.png'><img src='stim/b/orangey_field.jpg'>","49","html-keyboard-response","108","786180","0.0-12.0-1.20","training","cd","0.8","valid","10","c","win:stay","49","stim/b/lsingeltree_tallergrass_clouds.jpg","stim/b/orangey_field.jpg","stim/b/lsingeltree_tallergrass_clouds.jpg","GUID","20123","20","must be formatted exactly thusly: MM/DD/YYYY","??","??","?? maybe 1=Clinical; 2=Healthy control","integer number of months","20","0","1"
"null","<img style='border: 5px solid #808080;' src='stim/b/lsingeltree_tallergrass_clouds.jpg'><img style='width:150px; height:150px; padding-right: 50px; padding-left: 50px; margin-bottom: 50px;' src='stim/winwin.bmp'><img style='border: 5px solid #ffffff;  padding-left:15px;' src='stim/b/orangey_field.jpg'>","null","html-keyboard-response","109","787186","0.0-12.0-2.20","","","","","","","","","","","","","","","","","","","","","",""
"null","<img style='width:200px; height:200px; margin-left: 95px; margin-right: 95px;' src='stim/fixation.png'>","null","html-keyboard-response","110","788192","0.0-12.0-0.21","","","","","","","","","","","","","","","","","","","","","",""
"444.8349999729544","<img src='stim/b/3d-landscape-background-10.jpg'><img style='width:200px; height:200px; margin-bottom: 0px;' src='stim/fixation.png'><img src='stim/b/2822landscape.jpg'>","50","html-keyboard-response","111","788639","0.0-12.0-1.21","training","ab","0.9","valid","10","a","win:stay","49","stim/b/3d-landscape-background-10.jpg","stim/b/2822landscape.jpg","stim/b/3d-landscape-background-10.jpg","GUID","20123","20","must be formatted exactly thusly: MM/DD/YYYY","??","??","?? maybe 1=Clinical; 2=Healthy control","integer number of months","21","0","0"
"null","<img style='border: 5px solid #ffffff; padding-right:15px;' src='stim/b/3d-landscape-background-10.jpg'><img style='width:150px; height:150px; padding-right: 50px; padding-left: 50px; margin-bottom: 50px;' src='stim/not_winner.png'><img style='border: 5px solid #808080;'src='stim/b/2822landscape.jpg'>","null","html-keyboard-response","112","789645","0.0-12.0-2.21","","","","","","","","","","","","","","","","","","","","","",""
"null","<img style='width:200px; height:200px; margin-left: 95px; margin-right: 95px;' src='stim/fixation.png'>","null","html-keyboard-response","113","790651","0.0-12.0-0.22","","","","","","","","","","","","","","","","","","","","","",""
"322.3800000268966","<img src='stim/b/waterfall_waterBelow.jpg'><img style='width:200px; height:200px; margin-bottom: 0px;' src='stim/fixation.png'><img src='stim/b/water_pines_snowy_moutain.jpg'>","50","html-keyboard-response","114","790976","0.0-12.0-1.22","training","gh","0.8","valid","10","g","avoid:lose","50","stim/b/waterfall_waterBelow.jpg","stim/b/water_pines_snowy_moutain.jpg","stim/b/water_pines_snowy_moutain.jpg","GUID","20123","20","must be formatted exactly thusly: MM/DD/YYYY","??","??","?? maybe 1=Clinical; 2=Healthy control","integer number of months","22","0","1"
"null","<img style='border: 5px solid #ffffff; padding-right:15px;' src='stim/b/waterfall_waterBelow.jpg'><img style='width:150px; height:150px; padding-right: 50px; padding-left: 50px; margin-bottom: 50px;' src='stim/keep_money.png'><img style='border: 5px solid #808080;'src='stim/b/water_pines_snowy_moutain.jpg'>","null","html-keyboard-response","115","791983","0.0-12.0-2.22","","","","","","","","","","","","","","","","","","","","","",""
"null","<img style='width:200px; height:200px; margin-left: 95px; margin-right: 95px;' src='stim/fixation.png'>","null","html-keyboard-response","116","792988","0.0-12.0-0.23","","","","","","","","","","","","","","","","","","","","","",""
"251.9400001037866","<img src='stim/b/water_pines_distantMountains.jpg'><img style='width:200px; height:200px; margin-bottom: 0px;' src='stim/fixation.png'><img src='stim/b/water_fall_images.jpg'>","50","html-keyboard-response","117","793242","0.0-12.0-1.23","training","ef","0.9","valid","10","e","avoid:lose","50","stim/b/water_pines_distantMountains.jpg","stim/b/water_fall_images.jpg","stim/b/water_fall_images.jpg","GUID","20123","20","must be formatted exactly thusly: MM/DD/YYYY","??","??","?? maybe 1=Clinical; 2=Healthy control","integer number of months","23","0","1"
"null","<img style='border: 5px solid #ffffff; padding-right:15px;' src='stim/b/water_pines_distantMountains.jpg'><img style='width:150px; height:150px; padding-right: 50px; padding-left: 50px; margin-bottom: 50px;' src='stim/keep_money.png'><img style='border: 5px solid #808080;'src='stim/b/water_fall_images.jpg'>","null","html-keyboard-response","118","794246","0.0-12.0-2.23","","","","","","","","","","","","","","","","","","","","","",""
"null","<img style='width:200px; height:200px; margin-left: 95px; margin-right: 95px;' src='stim/fixation.png'>","null","html-keyboard-response","119","795250","0.0-12.0-0.24","","","","","","","","","","","","","","","","","","","","","",""
"860.215000109747","<img src='stim/b/water_pines_distantMountains.jpg'><img style='width:200px; height:200px; margin-bottom: 0px;' src='stim/fixation.png'><img src='stim/b/water_fall_images.jpg'>","49","html-keyboard-response","120","796113","0.0-12.0-1.24","training","ef","0.9","valid","10","e","avoid:lose","50","stim/b/water_pines_distantMountains.jpg","stim/b/water_fall_images.jpg","stim/b/water_fall_images.jpg","GUID","20123","20","must be formatted exactly thusly: MM/DD/YYYY","??","??","?? maybe 1=Clinical; 2=Healthy control","integer number of months","24","0","0"
"null","<img style='border: 5px solid #808080;' src='stim/b/water_pines_distantMountains.jpg'><img style='width:150px; height:150px; padding-right: 50px; padding-left: 50px; margin-bottom: 50px;' src='stim/loselose.bmp'><img style='border: 5px solid #ffffff;  padding-left:15px;' src='stim/b/water_fall_images.jpg'>","null","html-keyboard-response","121","797120","0.0-12.0-2.24","","","","","","","","","","","","","","","","","","","","","",""
"null","<img style='width:200px; height:200px; margin-left: 95px; margin-right: 95px;' src='stim/fixation.png'>","null","html-keyboard-response","122","798122","0.0-12.0-0.25","","","","","","","","","","","","","","","","","","","","","",""
"343.9449998550117","<img src='stim/b/3d-landscape-background-10.jpg'><img style='width:200px; height:200px; margin-bottom: 0px;' src='stim/fixation.png'><img src='stim/b/2822landscape.jpg'>","49","html-keyboard-response","123","798468","0.0-12.0-1.25","training","ab","0.9","valid","10","a","win:stay","49","stim/b/3d-landscape-background-10.jpg","stim/b/2822landscape.jpg","stim/b/3d-landscape-background-10.jpg","GUID","20123","20","must be formatted exactly thusly: MM/DD/YYYY","??","??","?? maybe 1=Clinical; 2=Healthy control","integer number of months","25","0","1"
"null","<img style='border: 5px solid #808080;' src='stim/b/3d-landscape-background-10.jpg'><img style='width:150px; height:150px; padding-right: 50px; padding-left: 50px; margin-bottom: 50px;' src='stim/winwin.bmp'><img style='border: 5px solid #ffffff;  padding-left:15px;' src='stim/b/2822landscape.jpg'>","null","html-keyboard-response","124","799472","0.0-12.0-2.25","","","","","","","","","","","","","","","","","","","","","",""
"null","<img style='width:200px; height:200px; margin-left: 95px; margin-right: 95px;' src='stim/fixation.png'>","null","html-keyboard-response","125","800478","0.0-12.0-0.26","","","","","","","","","","","","","","","","","","","","","",""
"1200.9000000543892","<img src='stim/b/water_pines_snowy_moutain.jpg'><img style='width:200px; height:200px; margin-bottom: 0px;' src='stim/fixation.png'><img src='stim/b/waterfall_waterBelow.jpg'>","49","html-keyboard-response","126","801681","0.0-12.0-1.26","training","gh","0.8","valid","10","g","avoid:lose","49","stim/b/waterfall_waterBelow.jpg","stim/b/water_pines_snowy_moutain.jpg","stim/b/water_pines_snowy_moutain.jpg","GUID","20123","20","must be formatted exactly thusly: MM/DD/YYYY","??","??","?? maybe 1=Clinical; 2=Healthy control","integer number of months","26","0","1"
"null","<img style='border: 5px solid #808080;' src='stim/b/water_pines_snowy_moutain.jpg'><img style='width:150px; height:150px; padding-right: 50px; padding-left: 50px; margin-bottom: 50px;' src='stim/keep_money.png'><img style='border: 5px solid #ffffff;  padding-left:15px;' src='stim/b/waterfall_waterBelow.jpg'>","null","html-keyboard-response","127","802686","0.0-12.0-2.26","","","","","","","","","","","","","","","","","","","","","",""
"null","<img style='width:200px; height:200px; margin-left: 95px; margin-right: 95px;' src='stim/fixation.png'>","null","html-keyboard-response","128","803692","0.0-12.0-0.27","","","","","","","","","","","","","","","","","","","","","",""
"303.84499998763204","<img src='stim/b/lsingeltree_tallergrass_clouds.jpg'><img style='width:200px; height:200px; margin-bottom: 0px;' src='stim/fixation.png'><img src='stim/b/orangey_field.jpg'>","50","html-keyboard-response","129","803998","0.0-12.0-1.27","training","cd","0.8","valid","10","c","win:stay","49","stim/b/lsingeltree_tallergrass_clouds.jpg","stim/b/orangey_field.jpg","stim/b/lsingeltree_tallergrass_clouds.jpg","GUID","20123","20","must be formatted exactly thusly: MM/DD/YYYY","??","??","?? maybe 1=Clinical; 2=Healthy control","integer number of months","27","0","0"
"null","<img style='border: 5px solid #ffffff; padding-right:15px;' src='stim/b/lsingeltree_tallergrass_clouds.jpg'><img style='width:150px; height:150px; padding-right: 50px; padding-left: 50px; margin-bottom: 50px;' src='stim/not_winner.png'><img style='border: 5px solid #808080;'src='stim/b/orangey_field.jpg'>","null","html-keyboard-response","130","805006","0.0-12.0-2.27","","","","","","","","","","","","","","","","","","","","","",""
"null","<img style='width:200px; height:200px; margin-left: 95px; margin-right: 95px;' src='stim/fixation.png'>","null","html-keyboard-response","131","806011","0.0-12.0-0.28","","","","","","","","","","","","","","","","","","","","","",""
"274.8350000474602","<img src='stim/b/orangey_field.jpg'><img style='width:200px; height:200px; margin-bottom: 0px;' src='stim/fixation.png'><img src='stim/b/lsingeltree_tallergrass_clouds.jpg'>","49","html-keyboard-response","132","806288","0.0-12.0-1.28","training","cd","0.8","valid","10","c","win:stay","50","stim/b/orangey_field.jpg","stim/b/lsingeltree_tallergrass_clouds.jpg","stim/b/lsingeltree_tallergrass_clouds.jpg","GUID","20123","20","must be formatted exactly thusly: MM/DD/YYYY","??","??","?? maybe 1=Clinical; 2=Healthy control","integer number of months","28","0","0"
"null","<img style='border: 5px solid #808080;' src='stim/b/orangey_field.jpg'><img style='width:150px; height:150px; padding-right: 50px; padding-left: 50px; margin-bottom: 50px;' src='stim/not_winner.png'><img style='border: 5px solid #ffffff;  padding-left:15px;' src='stim/b/lsingeltree_tallergrass_clouds.jpg'>","null","html-keyboard-response","133","807296","0.0-12.0-2.28","","","","","","","","","","","","","","","","","","","","","",""
"null","<img style='width:200px; height:200px; margin-left: 95px; margin-right: 95px;' src='stim/fixation.png'>","null","html-keyboard-response","134","808303","0.0-12.0-0.29","","","","","","","","","","","","","","","","","","","","","",""
"293.7000000383705","<img src='stim/b/water_fall_images.jpg'><img style='width:200px; height:200px; margin-bottom: 0px;' src='stim/fixation.png'><img src='stim/b/water_pines_distantMountains.jpg'>","50","html-keyboard-response","135","808598","0.0-12.0-1.29","training","ef","0.9","valid","10","e","avoid:lose","49","stim/b/water_fall_images.jpg","stim/b/water_pines_distantMountains.jpg","stim/b/water_fall_images.jpg","GUID","20123","20","must be formatted exactly thusly: MM/DD/YYYY","??","??","?? maybe 1=Clinical; 2=Healthy control","integer number of months","29","0","0"
"null","<img style='border: 5px solid #ffffff; padding-right:15px;' src='stim/b/water_fall_images.jpg'><img style='width:150px; height:150px; padding-right: 50px; padding-left: 50px; margin-bottom: 50px;' src='stim/loselose.bmp'><img style='border: 5px solid #808080;'src='stim/b/water_pines_distantMountains.jpg'>","null","html-keyboard-response","136","809604","0.0-12.0-2.29","","","","","","","","","","","","","","","","","","","","","",""
"null","<img style='width:200px; height:200px; margin-left: 95px; margin-right: 95px;' src='stim/fixation.png'>","null","html-keyboard-response","137","810609","0.0-12.0-0.30","","","","","","","","","","","","","","","","","","","","","",""
"201.10499998554587","<img src='stim/b/2822landscape.jpg'><img style='width:200px; height:200px; margin-bottom: 0px;' src='stim/fixation.png'><img src='stim/b/3d-landscape-background-10.jpg'>","49","html-keyboard-response","138","810812","0.0-12.0-1.30","training","ab","0.9","valid","10","a","win:stay","50","stim/b/2822landscape.jpg","stim/b/3d-landscape-background-10.jpg","stim/b/3d-landscape-background-10.jpg","GUID","20123","20","must be formatted exactly thusly: MM/DD/YYYY","??","??","?? maybe 1=Clinical; 2=Healthy control","integer number of months","30","0","0"
"null","<img style='border: 5px solid #808080;' src='stim/b/2822landscape.jpg'><img style='width:150px; height:150px; padding-right: 50px; padding-left: 50px; margin-bottom: 50px;' src='stim/not_winner.png'><img style='border: 5px solid #ffffff;  padding-left:15px;' src='stim/b/3d-landscape-background-10.jpg'>","null","html-keyboard-response","139","811820","0.0-12.0-2.30","","","","","","","","","","","","","","","","","","","","","",""
"null","<img style='width:200px; height:200px; margin-left: 95px; margin-right: 95px;' src='stim/fixation.png'>","null","html-keyboard-response","140","812825","0.0-12.0-0.31","","","","","","","","","","","","","","","","","","","","","",""
"130.31999999657273","<img src='stim/b/water_pines_snowy_moutain.jpg'><img style='width:200px; height:200px; margin-bottom: 0px;' src='stim/fixation.png'><img src='stim/b/waterfall_waterBelow.jpg'>","50","html-keyboard-response","141","812957","0.0-12.0-1.31","training","gh","0.8","valid","10","g","avoid:lose","49","stim/b/waterfall_waterBelow.jpg","stim/b/water_pines_snowy_moutain.jpg","stim/b/water_pines_snowy_moutain.jpg","GUID","20123","20","must be formatted exactly thusly: MM/DD/YYYY","??","??","?? maybe 1=Clinical; 2=Healthy control","integer number of months","31","0","0"
"null","<img style='border: 5px solid #ffffff; padding-right:15px;' src='stim/b/water_pines_snowy_moutain.jpg'><img style='width:150px; height:150px; padding-right: 50px; padding-left: 50px; margin-bottom: 50px;' src='stim/loselose.bmp'><img style='border: 5px solid #808080;'src='stim/b/waterfall_waterBelow.jpg'>","null","html-keyboard-response","142","813963","0.0-12.0-2.31","","","","","","","","","","","","","","","","","","","","","",""
"null","<img style='width:200px; height:200px; margin-left: 95px; margin-right: 95px;' src='stim/fixation.png'>","null","html-keyboard-response","143","814969","0.0-12.0-0.32","","","","","","","","","","","","","","","","","","","","","",""
"304.7050000168383","<img src='stim/b/water_fall_images.jpg'><img style='width:200px; height:200px; margin-bottom: 0px;' src='stim/fixation.png'><img src='stim/b/water_pines_distantMountains.jpg'>","49","html-keyboard-response","144","815275","0.0-12.0-1.32","training","ef","0.9","invalid","10","e","avoid:lose","49","stim/b/water_fall_images.jpg","stim/b/water_pines_distantMountains.jpg","stim/b/water_fall_images.jpg","GUID","20123","20","must be formatted exactly thusly: MM/DD/YYYY","??","??","?? maybe 1=Clinical; 2=Healthy control","integer number of months","32","0","1"
"null","<img style='border: 5px solid #808080;' src='stim/b/water_fall_images.jpg'><img style='width:150px; height:150px; padding-right: 50px; padding-left: 50px; margin-bottom: 50px;' src='stim/loselose.bmp'><img style='border: 5px solid #ffffff;  padding-left:15px;' src='stim/b/water_pines_distantMountains.jpg'>","null","html-keyboard-response","145","816282","0.0-12.0-2.32","","","","","","","","","","","","","","","","","","","","","",""
"null","<img style='width:200px; height:200px; margin-left: 95px; margin-right: 95px;' src='stim/fixation.png'>","null","html-keyboard-response","146","817288","0.0-12.0-0.33","","","","","","","","","","","","","","","","","","","","","",""
"17601.11499996856","<img src='stim/b/3d-landscape-background-10.jpg'><img style='width:200px; height:200px; margin-bottom: 0px;' src='stim/fixation.png'><img src='stim/b/2822landscape.jpg'>","49","html-keyboard-response","147","834892","0.0-12.0-1.33","training","ab","0.9","valid","10","a","win:stay","49","stim/b/3d-landscape-background-10.jpg","stim/b/2822landscape.jpg","stim/b/3d-landscape-background-10.jpg","GUID","20123","20","must be formatted exactly thusly: MM/DD/YYYY","??","??","?? maybe 1=Clinical; 2=Healthy control","integer number of months","33","0","1"
"null","<img style='border: 5px solid #808080;' src='stim/b/3d-landscape-background-10.jpg'><img style='width:150px; height:150px; padding-right: 50px; padding-left: 50px; margin-bottom: 50px;' src='stim/winwin.bmp'><img style='border: 5px solid #ffffff;  padding-left:15px;' src='stim/b/2822landscape.jpg'>","null","html-keyboard-response","148","835896","0.0-12.0-2.33","","","","","","","","","","","","","","","","","","","","","",""
"null","<img style='width:200px; height:200px; margin-left: 95px; margin-right: 95px;' src='stim/fixation.png'>","null","html-keyboard-response","149","836903","0.0-12.0-0.34","","","","","","","","","","","","","","","","","","","","","",""
"36460.119999945164","<img src='stim/b/orangey_field.jpg'><img style='width:200px; height:200px; margin-bottom: 0px;' src='stim/fixation.png'><img src='stim/b/lsingeltree_tallergrass_clouds.jpg'>","49","html-keyboard-response","150","873365","0.0-12.0-1.34","training","cd","0.8","valid","10","c","win:stay","50","stim/b/orangey_field.jpg","stim/b/lsingeltree_tallergrass_clouds.jpg","stim/b/lsingeltree_tallergrass_clouds.jpg","GUID","20123","20","must be formatted exactly thusly: MM/DD/YYYY","??","??","?? maybe 1=Clinical; 2=Healthy control","integer number of months","34","0","0"
"null","<img style='border: 5px solid #808080;' src='stim/b/orangey_field.jpg'><img style='width:150px; height:150px; padding-right: 50px; padding-left: 50px; margin-bottom: 50px;' src='stim/not_winner.png'><img style='border: 5px solid #ffffff;  padding-left:15px;' src='stim/b/lsingeltree_tallergrass_clouds.jpg'>","null","html-keyboard-response","151","874370","0.0-12.0-2.34","","","","","","","","","","","","","","","","","","","","","",""
"null","<img style='width:200px; height:200px; margin-left: 95px; margin-right: 95px;' src='stim/fixation.png'>","null","html-keyboard-response","152","875375","0.0-12.0-0.35","","","","","","","","","","","","","","","","","","","","","",""
"273.7700000870973","<img src='stim/b/waterfall_waterBelow.jpg'><img style='width:200px; height:200px; margin-bottom: 0px;' src='stim/fixation.png'><img src='stim/b/water_pines_snowy_moutain.jpg'>","50","html-keyboard-response","153","875650","0.0-12.0-1.35","training","gh","0.8","invalid","10","g","avoid:lose","50","stim/b/waterfall_waterBelow.jpg","stim/b/water_pines_snowy_moutain.jpg","stim/b/water_pines_snowy_moutain.jpg","GUID","20123","20","must be formatted exactly thusly: MM/DD/YYYY","??","??","?? maybe 1=Clinical; 2=Healthy control","integer number of months","35","0","1"
"null","<img style='border: 5px solid #ffffff; padding-right:15px;' src='stim/b/waterfall_waterBelow.jpg'><img style='width:150px; height:150px; padding-right: 50px; padding-left: 50px; margin-bottom: 50px;' src='stim/loselose.bmp'><img style='border: 5px solid #808080;'src='stim/b/water_pines_snowy_moutain.jpg'>","null","html-keyboard-response","154","876657","0.0-12.0-2.35","","","","","","","","","","","","","","","","","","","","","",""
"null","<img style='width:200px; height:200px; margin-left: 95px; margin-right: 95px;' src='stim/fixation.png'>","null","html-keyboard-response","155","877662","0.0-12.0-0.36","","","","","","","","","","","","","","","","","","","","","",""
"312.3599998652935","<img src='stim/b/orangey_field.jpg'><img style='width:200px; height:200px; margin-bottom: 0px;' src='stim/fixation.png'><img src='stim/b/lsingeltree_tallergrass_clouds.jpg'>","49","html-keyboard-response","156","877977","0.0-12.0-1.36","training","cd","0.8","valid","10","c","win:stay","50","stim/b/orangey_field.jpg","stim/b/lsingeltree_tallergrass_clouds.jpg","stim/b/lsingeltree_tallergrass_clouds.jpg","GUID","20123","20","must be formatted exactly thusly: MM/DD/YYYY","??","??","?? maybe 1=Clinical; 2=Healthy control","integer number of months","36","0","0"
"null","<img style='border: 5px solid #808080;' src='stim/b/orangey_field.jpg'><img style='width:150px; height:150px; padding-right: 50px; padding-left: 50px; margin-bottom: 50px;' src='stim/not_winner.png'><img style='border: 5px solid #ffffff;  padding-left:15px;' src='stim/b/lsingeltree_tallergrass_clouds.jpg'>","null","html-keyboard-response","157","878982","0.0-12.0-2.36","","","","","","","","","","","","","","","","","","","","","",""
"null","<img style='width:200px; height:200px; margin-left: 95px; margin-right: 95px;' src='stim/fixation.png'>","null","html-keyboard-response","158","879987","0.0-12.0-0.37","","","","","","","","","","","","","","","","","","","","","",""
"341.56000008806586","<img src='stim/b/2822landscape.jpg'><img style='width:200px; height:200px; margin-bottom: 0px;' src='stim/fixation.png'><img src='stim/b/3d-landscape-background-10.jpg'>","50","html-keyboard-response","159","880331","0.0-12.0-1.37","training","ab","0.9","valid","10","a","win:stay","50","stim/b/2822landscape.jpg","stim/b/3d-landscape-background-10.jpg","stim/b/3d-landscape-background-10.jpg","GUID","20123","20","must be formatted exactly thusly: MM/DD/YYYY","??","??","?? maybe 1=Clinical; 2=Healthy control","integer number of months","37","0","1"
"null","<img style='border: 5px solid #ffffff; padding-right:15px;' src='stim/b/2822landscape.jpg'><img style='width:150px; height:150px; padding-right: 50px; padding-left: 50px; margin-bottom: 50px;' src='stim/winwin.bmp'><img style='border: 5px solid #808080;'src='stim/b/3d-landscape-background-10.jpg'>","null","html-keyboard-response","160","881336","0.0-12.0-2.37","","","","","","","","","","","","","","","","","","","","","",""
"null","<img style='width:200px; height:200px; margin-left: 95px; margin-right: 95px;' src='stim/fixation.png'>","null","html-keyboard-response","161","882339","0.0-12.0-0.38","","","","","","","","","","","","","","","","","","","","","",""
"330.97500004805624","<img src='stim/b/water_fall_images.jpg'><img style='width:200px; height:200px; margin-bottom: 0px;' src='stim/fixation.png'><img src='stim/b/water_pines_distantMountains.jpg'>","49","html-keyboard-response","162","882673","0.0-12.0-1.38","training","ef","0.9","valid","10","e","avoid:lose","49","stim/b/water_fall_images.jpg","stim/b/water_pines_distantMountains.jpg","stim/b/water_fall_images.jpg","GUID","20123","20","must be formatted exactly thusly: MM/DD/YYYY","??","??","?? maybe 1=Clinical; 2=Healthy control","integer number of months","38","0","1"
"null","<img style='border: 5px solid #808080;' src='stim/b/water_fall_images.jpg'><img style='width:150px; height:150px; padding-right: 50px; padding-left: 50px; margin-bottom: 50px;' src='stim/keep_money.png'><img style='border: 5px solid #ffffff;  padding-left:15px;' src='stim/b/water_pines_distantMountains.jpg'>","null","html-keyboard-response","163","883676","0.0-12.0-2.38","","","","","","","","","","","","","","","","","","","","","",""
"null","<img style='width:200px; height:200px; margin-left: 95px; margin-right: 95px;' src='stim/fixation.png'>","null","html-keyboard-response","164","884682","0.0-12.0-0.39","","","","","","","","","","","","","","","","","","","","","",""
"410.89499997906387","<img src='stim/b/water_pines_snowy_moutain.jpg'><img style='width:200px; height:200px; margin-bottom: 0px;' src='stim/fixation.png'><img src='stim/b/waterfall_waterBelow.jpg'>","49","html-keyboard-response","165","885095","0.0-12.0-1.39","training","gh","0.8","valid","10","g","avoid:lose","49","stim/b/waterfall_waterBelow.jpg","stim/b/water_pines_snowy_moutain.jpg","stim/b/water_pines_snowy_moutain.jpg","GUID","20123","20","must be formatted exactly thusly: MM/DD/YYYY","??","??","?? maybe 1=Clinical; 2=Healthy control","integer number of months","39","0","1"
"null","<img style='border: 5px solid #808080;' src='stim/b/water_pines_snowy_moutain.jpg'><img style='width:150px; height:150px; padding-right: 50px; padding-left: 50px; margin-bottom: 50px;' src='stim/keep_money.png'><img style='border: 5px solid #ffffff;  padding-left:15px;' src='stim/b/waterfall_waterBelow.jpg'>","null","html-keyboard-response","166","886103","0.0-12.0-2.39","","","","","","","","","","","","","","","","","","","","","",""
"4171.740000136197","<p>Starting a new block of trials.</p> <p>Press the spacebar to begin.</p>","32","html-keyboard-response","167","890778","0.0-13.0","","","","","","","","","","","","","","","","","","","","","",""
"null","<img style='width:200px; height:200px; margin-left: 95px; margin-right: 95px;' src='stim/fixation.png'>","null","html-keyboard-response","168","891282","0.0-14.0-0.0","","","","","","","","","","","","","","","","","","","","","",""
"471.6349998489022","<img src='stim/b/waterfall_waterBelow.jpg'><img style='width:200px; height:200px; margin-bottom: 0px;' src='stim/fixation.png'><img src='stim/b/water_pines_snowy_moutain.jpg'>","50","html-keyboard-response","169","891756","0.0-14.0-1.0","training","gh","0.8","invalid","10","g","avoid:lose","50","stim/b/waterfall_waterBelow.jpg","stim/b/water_pines_snowy_moutain.jpg","stim/b/water_pines_snowy_moutain.jpg","GUID","20123","20","must be formatted exactly thusly: MM/DD/YYYY","??","??","?? maybe 1=Clinical; 2=Healthy control","integer number of months","0","1","1"
"null","<img style='border: 5px solid #ffffff; padding-right:15px;' src='stim/b/waterfall_waterBelow.jpg'><img style='width:150px; height:150px; padding-right: 50px; padding-left: 50px; margin-bottom: 50px;' src='stim/loselose.bmp'><img style='border: 5px solid #808080;'src='stim/b/water_pines_snowy_moutain.jpg'>","null","html-keyboard-response","170","892762","0.0-14.0-2.0","","","","","","","","","","","","","","","","","","","","","",""
"null","<img style='width:200px; height:200px; margin-left: 95px; margin-right: 95px;' src='stim/fixation.png'>","null","html-keyboard-response","171","893771","0.0-14.0-0.1","","","","","","","","","","","","","","","","","","","","","",""
"280.460000038147","<img src='stim/b/lsingeltree_tallergrass_clouds.jpg'><img style='width:200px; height:200px; margin-bottom: 0px;' src='stim/fixation.png'><img src='stim/b/orangey_field.jpg'>","49","html-keyboard-response","172","894054","0.0-14.0-1.1","training","cd","0.8","valid","10","c","win:stay","49","stim/b/lsingeltree_tallergrass_clouds.jpg","stim/b/orangey_field.jpg","stim/b/lsingeltree_tallergrass_clouds.jpg","GUID","20123","20","must be formatted exactly thusly: MM/DD/YYYY","??","??","?? maybe 1=Clinical; 2=Healthy control","integer number of months","1","1","1"
"null","<img style='border: 5px solid #808080;' src='stim/b/lsingeltree_tallergrass_clouds.jpg'><img style='width:150px; height:150px; padding-right: 50px; padding-left: 50px; margin-bottom: 50px;' src='stim/winwin.bmp'><img style='border: 5px solid #ffffff;  padding-left:15px;' src='stim/b/orangey_field.jpg'>","null","html-keyboard-response","173","895061","0.0-14.0-2.1","","","","","","","","","","","","","","","","","","","","","",""
"null","<img style='width:200px; height:200px; margin-left: 95px; margin-right: 95px;' src='stim/fixation.png'>","null","html-keyboard-response","174","896066","0.0-14.0-0.2","","","","","","","","","","","","","","","","","","","","","",""
"308.50000004284084","<img src='stim/b/water_fall_images.jpg'><img style='width:200px; height:200px; margin-bottom: 0px;' src='stim/fixation.png'><img src='stim/b/water_pines_distantMountains.jpg'>","50","html-keyboard-response","175","896377","0.0-14.0-1.2","training","ef","0.9","valid","10","e","avoid:lose","49","stim/b/water_fall_images.jpg","stim/b/water_pines_distantMountains.jpg","stim/b/water_fall_images.jpg","GUID","20123","20","must be formatted exactly thusly: MM/DD/YYYY","??","??","?? maybe 1=Clinical; 2=Healthy control","integer number of months","2","1","0"
"null","<img style='border: 5px solid #ffffff; padding-right:15px;' src='stim/b/water_fall_images.jpg'><img style='width:150px; height:150px; padding-right: 50px; padding-left: 50px; margin-bottom: 50px;' src='stim/loselose.bmp'><img style='border: 5px solid #808080;'src='stim/b/water_pines_distantMountains.jpg'>","null","html-keyboard-response","176","897381","0.0-14.0-2.2","","","","","","","","","","","","","","","","","","","","","",""
"null","<img style='width:200px; height:200px; margin-left: 95px; margin-right: 95px;' src='stim/fixation.png'>","null","html-keyboard-response","177","898388","0.0-14.0-0.3","","","","","","","","","","","","","","","","","","","","","",""
"728.8700002245605","<img src='stim/b/3d-landscape-background-10.jpg'><img style='width:200px; height:200px; margin-bottom: 0px;' src='stim/fixation.png'><img src='stim/b/2822landscape.jpg'>","49","html-keyboard-response","178","899119","0.0-14.0-1.3","training","ab","0.9","valid","10","a","win:stay","49","stim/b/3d-landscape-background-10.jpg","stim/b/2822landscape.jpg","stim/b/3d-landscape-background-10.jpg","GUID","20123","20","must be formatted exactly thusly: MM/DD/YYYY","??","??","?? maybe 1=Clinical; 2=Healthy control","integer number of months","3","1","1"
"null","<img style='border: 5px solid #808080;' src='stim/b/3d-landscape-background-10.jpg'><img style='width:150px; height:150px; padding-right: 50px; padding-left: 50px; margin-bottom: 50px;' src='stim/winwin.bmp'><img style='border: 5px solid #ffffff;  padding-left:15px;' src='stim/b/2822landscape.jpg'>","null","html-keyboard-response","179","900125","0.0-14.0-2.3","","","","","","","","","","","","","","","","","","","","","",""
"null","<img style='width:200px; height:200px; margin-left: 95px; margin-right: 95px;' src='stim/fixation.png'>","null","html-keyboard-response","180","901127","0.0-14.0-0.4","","","","","","","","","","","","","","","","","","","","","",""
"368.11499996110797","<img src='stim/b/orangey_field.jpg'><img style='width:200px; height:200px; margin-bottom: 0px;' src='stim/fixation.png'><img src='stim/b/lsingeltree_tallergrass_clouds.jpg'>","49","html-keyboard-response","181","901497","0.0-14.0-1.4","training","cd","0.8","valid","10","c","win:stay","50","stim/b/orangey_field.jpg","stim/b/lsingeltree_tallergrass_clouds.jpg","stim/b/lsingeltree_tallergrass_clouds.jpg","GUID","20123","20","must be formatted exactly thusly: MM/DD/YYYY","??","??","?? maybe 1=Clinical; 2=Healthy control","integer number of months","4","1","0"
"null","<img style='border: 5px solid #808080;' src='stim/b/orangey_field.jpg'><img style='width:150px; height:150px; padding-right: 50px; padding-left: 50px; margin-bottom: 50px;' src='stim/not_winner.png'><img style='border: 5px solid #ffffff;  padding-left:15px;' src='stim/b/lsingeltree_tallergrass_clouds.jpg'>","null","html-keyboard-response","182","902500","0.0-14.0-2.4","","","","","","","","","","","","","","","","","","","","","",""
"null","<img style='width:200px; height:200px; margin-left: 95px; margin-right: 95px;' src='stim/fixation.png'>","null","html-keyboard-response","183","903503","0.0-14.0-0.5","","","","","","","","","","","","","","","","","","","","","",""
"266.58499985933304","<img src='stim/b/waterfall_waterBelow.jpg'><img style='width:200px; height:200px; margin-bottom: 0px;' src='stim/fixation.png'><img src='stim/b/water_pines_snowy_moutain.jpg'>","50","html-keyboard-response","184","903771","0.0-14.0-1.5","training","gh","0.8","valid","10","g","avoid:lose","50","stim/b/waterfall_waterBelow.jpg","stim/b/water_pines_snowy_moutain.jpg","stim/b/water_pines_snowy_moutain.jpg","GUID","20123","20","must be formatted exactly thusly: MM/DD/YYYY","??","??","?? maybe 1=Clinical; 2=Healthy control","integer number of months","5","1","1"
"null","<img style='border: 5px solid #ffffff; padding-right:15px;' src='stim/b/waterfall_waterBelow.jpg'><img style='width:150px; height:150px; padding-right: 50px; padding-left: 50px; margin-bottom: 50px;' src='stim/keep_money.png'><img style='border: 5px solid #808080;'src='stim/b/water_pines_snowy_moutain.jpg'>","null","html-keyboard-response","185","904778","0.0-14.0-2.5","","","","","","","","","","","","","","","","","","","","","",""
"null","<img style='width:200px; height:200px; margin-left: 95px; margin-right: 95px;' src='stim/fixation.png'>","null","html-keyboard-response","186","905780","0.0-14.0-0.6","","","","","","","","","","","","","","","","","","","","","",""
"543.5649999417365","<img src='stim/b/water_pines_distantMountains.jpg'><img style='width:200px; height:200px; margin-bottom: 0px;' src='stim/fixation.png'><img src='stim/b/water_fall_images.jpg'>","49","html-keyboard-response","187","906326","0.0-14.0-1.6","training","ef","0.9","valid","10","e","avoid:lose","50","stim/b/water_pines_distantMountains.jpg","stim/b/water_fall_images.jpg","stim/b/water_fall_images.jpg","GUID","20123","20","must be formatted exactly thusly: MM/DD/YYYY","??","??","?? maybe 1=Clinical; 2=Healthy control","integer number of months","6","1","0"
"null","<img style='border: 5px solid #808080;' src='stim/b/water_pines_distantMountains.jpg'><img style='width:150px; height:150px; padding-right: 50px; padding-left: 50px; margin-bottom: 50px;' src='stim/loselose.bmp'><img style='border: 5px solid #ffffff;  padding-left:15px;' src='stim/b/water_fall_images.jpg'>","null","html-keyboard-response","188","907330","0.0-14.0-2.6","","","","","","","","","","","","","","","","","","","","","",""
"null","<img style='width:200px; height:200px; margin-left: 95px; margin-right: 95px;' src='stim/fixation.png'>","null","html-keyboard-response","189","908337","0.0-14.0-0.7","","","","","","","","","","","","","","","","","","","","","",""
"1560.2300001773983","<img src='stim/b/2822landscape.jpg'><img style='width:200px; height:200px; margin-bottom: 0px;' src='stim/fixation.png'><img src='stim/b/3d-landscape-background-10.jpg'>","49","html-keyboard-response","190","909899","0.0-14.0-1.7","training","ab","0.9","valid","10","a","win:stay","50","stim/b/2822landscape.jpg","stim/b/3d-landscape-background-10.jpg","stim/b/3d-landscape-background-10.jpg","GUID","20123","20","must be formatted exactly thusly: MM/DD/YYYY","??","??","?? maybe 1=Clinical; 2=Healthy control","integer number of months","7","1","0"
"null","<img style='border: 5px solid #808080;' src='stim/b/2822landscape.jpg'><img style='width:150px; height:150px; padding-right: 50px; padding-left: 50px; margin-bottom: 50px;' src='stim/not_winner.png'><img style='border: 5px solid #ffffff;  padding-left:15px;' src='stim/b/3d-landscape-background-10.jpg'>","null","html-keyboard-response","191","910904","0.0-14.0-2.7","","","","","","","","","","","","","","","","","","","","","",""
"null","<img style='width:200px; height:200px; margin-left: 95px; margin-right: 95px;' src='stim/fixation.png'>","null","html-keyboard-response","192","911909","0.0-14.0-0.8","","","","","","","","","","","","","","","","","","","","","",""
"819.9750001076609","<img src='stim/b/orangey_field.jpg'><img style='width:200px; height:200px; margin-bottom: 0px;' src='stim/fixation.png'><img src='stim/b/lsingeltree_tallergrass_clouds.jpg'>","50","html-keyboard-response","193","912731","0.0-14.0-1.8","training","cd","0.8","invalid","10","c","win:stay","50","stim/b/orangey_field.jpg","stim/b/lsingeltree_tallergrass_clouds.jpg","stim/b/lsingeltree_tallergrass_clouds.jpg","GUID","20123","20","must be formatted exactly thusly: MM/DD/YYYY","??","??","?? maybe 1=Clinical; 2=Healthy control","integer number of months","8","1","1"
"null","<img style='border: 5px solid #ffffff; padding-right:15px;' src='stim/b/orangey_field.jpg'><img style='width:150px; height:150px; padding-right: 50px; padding-left: 50px; margin-bottom: 50px;' src='stim/not_winner.png'><img style='border: 5px solid #808080;'src='stim/b/lsingeltree_tallergrass_clouds.jpg'>","null","html-keyboard-response","194","913735","0.0-14.0-2.8","","","","","","","","","","","","","","","","","","","","","",""
"null","<img style='width:200px; height:200px; margin-left: 95px; margin-right: 95px;' src='stim/fixation.png'>","null","html-keyboard-response","195","914741","0.0-14.0-0.9","","","","","","","","","","","","","","","","","","","","","",""
"318.5399998910725","<img src='stim/b/3d-landscape-background-10.jpg'><img style='width:200px; height:200px; margin-bottom: 0px;' src='stim/fixation.png'><img src='stim/b/2822landscape.jpg'>","49","html-keyboard-response","196","915062","0.0-14.0-1.9","training","ab","0.9","valid","10","a","win:stay","49","stim/b/3d-landscape-background-10.jpg","stim/b/2822landscape.jpg","stim/b/3d-landscape-background-10.jpg","GUID","20123","20","must be formatted exactly thusly: MM/DD/YYYY","??","??","?? maybe 1=Clinical; 2=Healthy control","integer number of months","9","1","1"
"null","<img style='border: 5px solid #808080;' src='stim/b/3d-landscape-background-10.jpg'><img style='width:150px; height:150px; padding-right: 50px; padding-left: 50px; margin-bottom: 50px;' src='stim/winwin.bmp'><img style='border: 5px solid #ffffff;  padding-left:15px;' src='stim/b/2822landscape.jpg'>","null","html-keyboard-response","197","916069","0.0-14.0-2.9","","","","","","","","","","","","","","","","","","","","","",""
"null","<img style='width:200px; height:200px; margin-left: 95px; margin-right: 95px;' src='stim/fixation.png'>","null","html-keyboard-response","198","917075","0.0-14.0-0.10","","","","","","","","","","","","","","","","","","","","","",""
"406.55999979935586","<img src='stim/b/waterfall_waterBelow.jpg'><img style='width:200px; height:200px; margin-bottom: 0px;' src='stim/fixation.png'><img src='stim/b/water_pines_snowy_moutain.jpg'>","50","html-keyboard-response","199","917484","0.0-14.0-1.10","training","gh","0.8","valid","10","g","avoid:lose","50","stim/b/waterfall_waterBelow.jpg","stim/b/water_pines_snowy_moutain.jpg","stim/b/water_pines_snowy_moutain.jpg","GUID","20123","20","must be formatted exactly thusly: MM/DD/YYYY","??","??","?? maybe 1=Clinical; 2=Healthy control","integer number of months","10","1","1"
"null","<img style='border: 5px solid #ffffff; padding-right:15px;' src='stim/b/waterfall_waterBelow.jpg'><img style='width:150px; height:150px; padding-right: 50px; padding-left: 50px; margin-bottom: 50px;' src='stim/keep_money.png'><img style='border: 5px solid #808080;'src='stim/b/water_pines_snowy_moutain.jpg'>","null","html-keyboard-response","200","918491","0.0-14.0-2.10","","","","","","","","","","","","","","","","","","","","","",""
"null","<img style='width:200px; height:200px; margin-left: 95px; margin-right: 95px;' src='stim/fixation.png'>","null","html-keyboard-response","201","919497","0.0-14.0-0.11","","","","","","","","","","","","","","","","","","","","","",""
"162.4149999115616","<img src='stim/b/water_pines_distantMountains.jpg'><img style='width:200px; height:200px; margin-bottom: 0px;' src='stim/fixation.png'><img src='stim/b/water_fall_images.jpg'>","49","html-keyboard-response","202","919663","0.0-14.0-1.11","training","ef","0.9","valid","10","e","avoid:lose","50","stim/b/water_pines_distantMountains.jpg","stim/b/water_fall_images.jpg","stim/b/water_fall_images.jpg","GUID","20123","20","must be formatted exactly thusly: MM/DD/YYYY","??","??","?? maybe 1=Clinical; 2=Healthy control","integer number of months","11","1","0"
"null","<img style='border: 5px solid #808080;' src='stim/b/water_pines_distantMountains.jpg'><img style='width:150px; height:150px; padding-right: 50px; padding-left: 50px; margin-bottom: 50px;' src='stim/loselose.bmp'><img style='border: 5px solid #ffffff;  padding-left:15px;' src='stim/b/water_fall_images.jpg'>","null","html-keyboard-response","203","920669","0.0-14.0-2.11","","","","","","","","","","","","","","","","","","","","","",""
"null","<img style='width:200px; height:200px; margin-left: 95px; margin-right: 95px;' src='stim/fixation.png'>","null","html-keyboard-response","204","921674","0.0-14.0-0.12","","","","","","","","","","","","","","","","","","","","","",""
"283.49999990314245","<img src='stim/b/water_fall_images.jpg'><img style='width:200px; height:200px; margin-bottom: 0px;' src='stim/fixation.png'><img src='stim/b/water_pines_distantMountains.jpg'>","50","html-keyboard-response","205","921960","0.0-14.0-1.12","training","ef","0.9","valid","10","e","avoid:lose","49","stim/b/water_fall_images.jpg","stim/b/water_pines_distantMountains.jpg","stim/b/water_fall_images.jpg","GUID","20123","20","must be formatted exactly thusly: MM/DD/YYYY","??","??","?? maybe 1=Clinical; 2=Healthy control","integer number of months","12","1","0"
"null","<img style='border: 5px solid #ffffff; padding-right:15px;' src='stim/b/water_fall_images.jpg'><img style='width:150px; height:150px; padding-right: 50px; padding-left: 50px; margin-bottom: 50px;' src='stim/loselose.bmp'><img style='border: 5px solid #808080;'src='stim/b/water_pines_distantMountains.jpg'>","null","html-keyboard-response","206","922965","0.0-14.0-2.12","","","","","","","","","","","","","","","","","","","","","",""
"null","<img style='width:200px; height:200px; margin-left: 95px; margin-right: 95px;' src='stim/fixation.png'>","null","html-keyboard-response","207","923971","0.0-14.0-0.13","","","","","","","","","","","","","","","","","","","","","",""
"238.88499988242984","<img src='stim/b/2822landscape.jpg'><img style='width:200px; height:200px; margin-bottom: 0px;' src='stim/fixation.png'><img src='stim/b/3d-landscape-background-10.jpg'>","49","html-keyboard-response","208","924213","0.0-14.0-1.13","training","ab","0.9","valid","10","a","win:stay","50","stim/b/2822landscape.jpg","stim/b/3d-landscape-background-10.jpg","stim/b/3d-landscape-background-10.jpg","GUID","20123","20","must be formatted exactly thusly: MM/DD/YYYY","??","??","?? maybe 1=Clinical; 2=Healthy control","integer number of months","13","1","0"
"null","<img style='border: 5px solid #808080;' src='stim/b/2822landscape.jpg'><img style='width:150px; height:150px; padding-right: 50px; padding-left: 50px; margin-bottom: 50px;' src='stim/not_winner.png'><img style='border: 5px solid #ffffff;  padding-left:15px;' src='stim/b/3d-landscape-background-10.jpg'>","null","html-keyboard-response","209","925219","0.0-14.0-2.13","","","","","","","","","","","","","","","","","","","","","",""
"null","<img style='width:200px; height:200px; margin-left: 95px; margin-right: 95px;' src='stim/fixation.png'>","null","html-keyboard-response","210","926225","0.0-14.0-0.14","","","","","","","","","","","","","","","","","","","","","",""
"347.8299998678267","<img src='stim/b/lsingeltree_tallergrass_clouds.jpg'><img style='width:200px; height:200px; margin-bottom: 0px;' src='stim/fixation.png'><img src='stim/b/orangey_field.jpg'>","50","html-keyboard-response","211","926575","0.0-14.0-1.14","training","cd","0.8","invalid","10","c","win:stay","49","stim/b/lsingeltree_tallergrass_clouds.jpg","stim/b/orangey_field.jpg","stim/b/lsingeltree_tallergrass_clouds.jpg","GUID","20123","20","must be formatted exactly thusly: MM/DD/YYYY","??","??","?? maybe 1=Clinical; 2=Healthy control","integer number of months","14","1","0"
"null","<img style='border: 5px solid #ffffff; padding-right:15px;' src='stim/b/lsingeltree_tallergrass_clouds.jpg'><img style='width:150px; height:150px; padding-right: 50px; padding-left: 50px; margin-bottom: 50px;' src='stim/winwin.bmp'><img style='border: 5px solid #808080;'src='stim/b/orangey_field.jpg'>","null","html-keyboard-response","212","927582","0.0-14.0-2.14","","","","","","","","","","","","","","","","","","","","","",""
"null","<img style='width:200px; height:200px; margin-left: 95px; margin-right: 95px;' src='stim/fixation.png'>","null","html-keyboard-response","213","928588","0.0-14.0-0.15","","","","","","","","","","","","","","","","","","","","","",""
"271.14500012248755","<img src='stim/b/water_pines_snowy_moutain.jpg'><img style='width:200px; height:200px; margin-bottom: 0px;' src='stim/fixation.png'><img src='stim/b/waterfall_waterBelow.jpg'>","49","html-keyboard-response","214","928861","0.0-14.0-1.15","training","gh","0.8","valid","10","g","avoid:lose","49","stim/b/waterfall_waterBelow.jpg","stim/b/water_pines_snowy_moutain.jpg","stim/b/water_pines_snowy_moutain.jpg","GUID","20123","20","must be formatted exactly thusly: MM/DD/YYYY","??","??","?? maybe 1=Clinical; 2=Healthy control","integer number of months","15","1","1"
"null","<img style='border: 5px solid #808080;' src='stim/b/water_pines_snowy_moutain.jpg'><img style='width:150px; height:150px; padding-right: 50px; padding-left: 50px; margin-bottom: 50px;' src='stim/keep_money.png'><img style='border: 5px solid #ffffff;  padding-left:15px;' src='stim/b/waterfall_waterBelow.jpg'>","null","html-keyboard-response","215","929869","0.0-14.0-2.15","","","","","","","","","","","","","","","","","","","","","",""
"null","<img style='width:200px; height:200px; margin-left: 95px; margin-right: 95px;' src='stim/fixation.png'>","null","html-keyboard-response","216","930875","0.0-14.0-0.16","","","","","","","","","","","","","","","","","","","","","",""
"303.19999996572733","<img src='stim/b/lsingeltree_tallergrass_clouds.jpg'><img style='width:200px; height:200px; margin-bottom: 0px;' src='stim/fixation.png'><img src='stim/b/orangey_field.jpg'>","50","html-keyboard-response","217","931180","0.0-14.0-1.16","training","cd","0.8","valid","10","c","win:stay","49","stim/b/lsingeltree_tallergrass_clouds.jpg","stim/b/orangey_field.jpg","stim/b/lsingeltree_tallergrass_clouds.jpg","GUID","20123","20","must be formatted exactly thusly: MM/DD/YYYY","??","??","?? maybe 1=Clinical; 2=Healthy control","integer number of months","16","1","0"
"null","<img style='border: 5px solid #ffffff; padding-right:15px;' src='stim/b/lsingeltree_tallergrass_clouds.jpg'><img style='width:150px; height:150px; padding-right: 50px; padding-left: 50px; margin-bottom: 50px;' src='stim/not_winner.png'><img style='border: 5px solid #808080;'src='stim/b/orangey_field.jpg'>","null","html-keyboard-response","218","932185","0.0-14.0-2.16","","","","","","","","","","","","","","","","","","","","","",""
"null","<img style='width:200px; height:200px; margin-left: 95px; margin-right: 95px;' src='stim/fixation.png'>","null","html-keyboard-response","219","933190","0.0-14.0-0.17","","","","","","","","","","","","","","","","","","","","","",""
"284.97999999672174","<img src='stim/b/water_pines_snowy_moutain.jpg'><img style='width:200px; height:200px; margin-bottom: 0px;' src='stim/fixation.png'><img src='stim/b/waterfall_waterBelow.jpg'>","49","html-keyboard-response","220","933477","0.0-14.0-1.17","training","gh","0.8","valid","10","g","avoid:lose","49","stim/b/waterfall_waterBelow.jpg","stim/b/water_pines_snowy_moutain.jpg","stim/b/water_pines_snowy_moutain.jpg","GUID","20123","20","must be formatted exactly thusly: MM/DD/YYYY","??","??","?? maybe 1=Clinical; 2=Healthy control","integer number of months","17","1","1"
"null","<img style='border: 5px solid #808080;' src='stim/b/water_pines_snowy_moutain.jpg'><img style='width:150px; height:150px; padding-right: 50px; padding-left: 50px; margin-bottom: 50px;' src='stim/keep_money.png'><img style='border: 5px solid #ffffff;  padding-left:15px;' src='stim/b/waterfall_waterBelow.jpg'>","null","html-keyboard-response","221","934484","0.0-14.0-2.17","","","","","","","","","","","","","","","","","","","","","",""
"null","<img style='width:200px; height:200px; margin-left: 95px; margin-right: 95px;' src='stim/fixation.png'>","null","html-keyboard-response","222","935491","0.0-14.0-0.18","","","","","","","","","","","","","","","","","","","","","",""
"355.08499993011355","<img src='stim/b/2822landscape.jpg'><img style='width:200px; height:200px; margin-bottom: 0px;' src='stim/fixation.png'><img src='stim/b/3d-landscape-background-10.jpg'>","50","html-keyboard-response","223","935847","0.0-14.0-1.18","training","ab","0.9","invalid","10","a","win:stay","50","stim/b/2822landscape.jpg","stim/b/3d-landscape-background-10.jpg","stim/b/3d-landscape-background-10.jpg","GUID","20123","20","must be formatted exactly thusly: MM/DD/YYYY","??","??","?? maybe 1=Clinical; 2=Healthy control","integer number of months","18","1","1"
"null","<img style='border: 5px solid #ffffff; padding-right:15px;' src='stim/b/2822landscape.jpg'><img style='width:150px; height:150px; padding-right: 50px; padding-left: 50px; margin-bottom: 50px;' src='stim/not_winner.png'><img style='border: 5px solid #808080;'src='stim/b/3d-landscape-background-10.jpg'>","null","html-keyboard-response","224","936853","0.0-14.0-2.18","","","","","","","","","","","","","","","","","","","","","",""
"null","<img style='width:200px; height:200px; margin-left: 95px; margin-right: 95px;' src='stim/fixation.png'>","null","html-keyboard-response","225","937858","0.0-14.0-0.19","","","","","","","","","","","","","","","","","","","","","",""
"253.969999961555","<img src='stim/b/water_pines_distantMountains.jpg'><img style='width:200px; height:200px; margin-bottom: 0px;' src='stim/fixation.png'><img src='stim/b/water_fall_images.jpg'>","49","html-keyboard-response","226","938113","0.0-14.0-1.19","training","ef","0.9","valid","10","e","avoid:lose","50","stim/b/water_pines_distantMountains.jpg","stim/b/water_fall_images.jpg","stim/b/water_fall_images.jpg","GUID","20123","20","must be formatted exactly thusly: MM/DD/YYYY","??","??","?? maybe 1=Clinical; 2=Healthy control","integer number of months","19","1","0"
"null","<img style='border: 5px solid #808080;' src='stim/b/water_pines_distantMountains.jpg'><img style='width:150px; height:150px; padding-right: 50px; padding-left: 50px; margin-bottom: 50px;' src='stim/loselose.bmp'><img style='border: 5px solid #ffffff;  padding-left:15px;' src='stim/b/water_fall_images.jpg'>","null","html-keyboard-response","227","939117","0.0-14.0-2.19","","","","","","","","","","","","","","","","","","","","","",""
"null","<img style='width:200px; height:200px; margin-left: 95px; margin-right: 95px;' src='stim/fixation.png'>","null","html-keyboard-response","228","940123","0.0-14.0-0.20","","","","","","","","","","","","","","","","","","","","","",""
"286.3149999175221","<img src='stim/b/waterfall_waterBelow.jpg'><img style='width:200px; height:200px; margin-bottom: 0px;' src='stim/fixation.png'><img src='stim/b/water_pines_snowy_moutain.jpg'>","50","html-keyboard-response","229","940411","0.0-14.0-1.20","training","gh","0.8","valid","10","g","avoid:lose","50","stim/b/waterfall_waterBelow.jpg","stim/b/water_pines_snowy_moutain.jpg","stim/b/water_pines_snowy_moutain.jpg","GUID","20123","20","must be formatted exactly thusly: MM/DD/YYYY","??","??","?? maybe 1=Clinical; 2=Healthy control","integer number of months","20","1","1"
"null","<img style='border: 5px solid #ffffff; padding-right:15px;' src='stim/b/waterfall_waterBelow.jpg'><img style='width:150px; height:150px; padding-right: 50px; padding-left: 50px; margin-bottom: 50px;' src='stim/keep_money.png'><img style='border: 5px solid #808080;'src='stim/b/water_pines_snowy_moutain.jpg'>","null","html-keyboard-response","230","941418","0.0-14.0-2.20","","","","","","","","","","","","","","","","","","","","","",""
"null","<img style='width:200px; height:200px; margin-left: 95px; margin-right: 95px;' src='stim/fixation.png'>","null","html-keyboard-response","231","942424","0.0-14.0-0.21","","","","","","","","","","","","","","","","","","","","","",""
"167.88499988615513","<img src='stim/b/3d-landscape-background-10.jpg'><img style='width:200px; height:200px; margin-bottom: 0px;' src='stim/fixation.png'><img src='stim/b/2822landscape.jpg'>","49","html-keyboard-response","232","942594","0.0-14.0-1.21","training","ab","0.9","valid","10","a","win:stay","49","stim/b/3d-landscape-background-10.jpg","stim/b/2822landscape.jpg","stim/b/3d-landscape-background-10.jpg","GUID","20123","20","must be formatted exactly thusly: MM/DD/YYYY","??","??","?? maybe 1=Clinical; 2=Healthy control","integer number of months","21","1","1"
"null","<img style='border: 5px solid #808080;' src='stim/b/3d-landscape-background-10.jpg'><img style='width:150px; height:150px; padding-right: 50px; padding-left: 50px; margin-bottom: 50px;' src='stim/winwin.bmp'><img style='border: 5px solid #ffffff;  padding-left:15px;' src='stim/b/2822landscape.jpg'>","null","html-keyboard-response","233","943602","0.0-14.0-2.21","","","","","","","","","","","","","","","","","","","","","",""
"null","<img style='width:200px; height:200px; margin-left: 95px; margin-right: 95px;' src='stim/fixation.png'>","null","html-keyboard-response","234","944609","0.0-14.0-0.22","","","","","","","","","","","","","","","","","","","","","",""
"216.51500021107495","<img src='stim/b/lsingeltree_tallergrass_clouds.jpg'><img style='width:200px; height:200px; margin-bottom: 0px;' src='stim/fixation.png'><img src='stim/b/orangey_field.jpg'>","49","html-keyboard-response","235","944827","0.0-14.0-1.22","training","cd","0.8","valid","10","c","win:stay","49","stim/b/lsingeltree_tallergrass_clouds.jpg","stim/b/orangey_field.jpg","stim/b/lsingeltree_tallergrass_clouds.jpg","GUID","20123","20","must be formatted exactly thusly: MM/DD/YYYY","??","??","?? maybe 1=Clinical; 2=Healthy control","integer number of months","22","1","1"
"null","<img style='border: 5px solid #808080;' src='stim/b/lsingeltree_tallergrass_clouds.jpg'><img style='width:150px; height:150px; padding-right: 50px; padding-left: 50px; margin-bottom: 50px;' src='stim/winwin.bmp'><img style='border: 5px solid #ffffff;  padding-left:15px;' src='stim/b/orangey_field.jpg'>","null","html-keyboard-response","236","945832","0.0-14.0-2.22","","","","","","","","","","","","","","","","","","","","","",""
"null","<img style='width:200px; height:200px; margin-left: 95px; margin-right: 95px;' src='stim/fixation.png'>","null","html-keyboard-response","237","946838","0.0-14.0-0.23","","","","","","","","","","","","","","","","","","","","","",""
