"rt","stimulus","key_press","trial_type","trial_index","time_elapsed","internal_node_id","test_part","pair","pair_validity","trial_validity","pairTrialsPerBlock","good_stim","reward_type","correct_response","accuracy"
"773.3000000000002","<h3 style=""color:#0ed145;"">Welcome to the experiment!</h3><p>Press the spacebar continue.</p>","32","html-keyboard-response","0","778","0.0-0.0","","","","","","","","",""
"231.80000000000018","<p>In this task you will see two pictures side-by-side on the computer screen.</p><p>In each pair of pictures you see on the screen, one picture will be better than the other.</p><p>You need to figure out which picture in each pair is the better one.</p><p>Press the spacebar continue.</p>","32","html-keyboard-response","1","1013","0.0-1.0","","","","","","","","",""
"265.90000000000054","<p>The better picture in each pair will be more likely to either</p><p>A) win you some money,</p><p>or</p><p>B) allow you to keep the money you've already earned.</p><p>Press the spacebar continue.</p>","32","html-keyboard-response","2","1281","0.0-2.0","","","","","","","","",""
"300.8000000000002","<p>On those trials where you can A) win money, you will want to select the picture most likely to earn a nickel:</p><img style=""height:100px; width:100px"" src=""stim/win.bmp""</img><p>Because if you keep seeing this feedback:</p><img style=""height:125px; width:125px"" src=""stim/not_winner.png""></img><p>you probably aren't selecting the best picture...</p><p>Press the spacebar continue.</p>","32","html-keyboard-response","3","1586","0.0-3.0","","","","","","","","",""
"308.89999999999963","<p>On those trials where you can B) lose money, you will want to select the picture most likely to give this feedback:</p><img style=""height:125px; width:125px"" src=""stim/keep_money.png""></img><p>Because if you keep seeing this:</p><img style=""height:100px; width:100px"" src=""stim/lose.bmp""></img><p>you probably aren't selecting the best picture...</p>","32","html-keyboard-response","4","1898","0.0-4.0","","","","","","","","",""
"325.2999999999993","<p>Press the 1 key on your keyboard to select the picture on the LEFT.</p><p>Press the 2 key on your keyboard to select the picture on the RIGHT.</p><p>Press the spacebar continue.</p>","32","html-keyboard-response","5","2226","0.0-5.0","","","","","","","","",""
"2839.7999999999992","<p>First you will do some practice trials.</p> <p>Press either button when you are ready to begin.</p>","49","html-keyboard-response","6","5067","0.0-6.0","","","","","","","","",""
"null","<img style='width:200px; height:200px; margin-left: 95px; margin-right: 95px;' src='stim/fixation.png'>","null","html-keyboard-response","7","5584","0.0-7.0-0.0","fixation","","","","","","","",""
"334.5","<img src='stim/a/Field4.bmp'><img style='width:200px; height:200px; margin-bottom: 0px;' src='stim/fixation.png'><img src='stim/a/Field10.bmp'>","49","html-keyboard-response","8","5922","0.0-7.0-1.0","practice","ab","1","valid","6","a","win:stay","49","1"
"null","<img style='border: 5px solid #808080;' src='stim/a/Field4.bmp'><img style='width:100px; height:100px; padding-right: 75px; padding-left: 75px; margin-bottom: 50px;' src='stim/win.bmp'><img style='border: 5px solid #ffffff;  padding-left:15px;' src='stim/a/Field10.bmp'>","null","html-keyboard-response","9","6936","0.0-7.0-2.0","feedback","","","","","","","",""
"null","<img style='width:200px; height:200px; margin-left: 95px; margin-right: 95px;' src='stim/fixation.png'>","null","html-keyboard-response","10","7952","0.0-7.0-0.1","fixation","","","","","","","",""
"510.5","<img src='stim/a/Field10.bmp'><img style='width:200px; height:200px; margin-bottom: 0px;' src='stim/fixation.png'><img src='stim/a/Field4.bmp'>","49","html-keyboard-response","11","8466","0.0-7.0-1.1","practice","ab","1","valid","6","a","win:stay","50","0"
"null","<img style='border: 5px solid #808080;' src='stim/a/Field10.bmp'><img style='width:100px; height:100px; padding-right: 75px; padding-left: 75px; margin-bottom: 50px;' src='stim/not_winner.png'><img style='border: 5px solid #ffffff;  padding-left:15px;' src='stim/a/Field4.bmp'>","null","html-keyboard-response","12","9482","0.0-7.0-2.1","feedback","","","","","","","",""
"null","<img style='width:200px; height:200px; margin-left: 95px; margin-right: 95px;' src='stim/fixation.png'>","null","html-keyboard-response","13","10497","0.0-7.0-0.2","fixation","","","","","","","",""
"309.2000000000007","<img src='stim/a/Field13.bmp'><img style='width:200px; height:200px; margin-bottom: 0px;' src='stim/fixation.png'><img src='stim/a/Field17.bmp'>","49","html-keyboard-response","14","10809","0.0-7.0-1.2","practice","ef","1","valid","6","e","avoid:lose","49","1"
"null","<img style='border: 5px solid #808080;' src='stim/a/Field13.bmp'><img style='width:100px; height:100px; padding-right: 75px; padding-left: 75px; margin-bottom: 50px;' src='stim/keep_money.png'><img style='border: 5px solid #ffffff;  padding-left:15px;' src='stim/a/Field17.bmp'>","null","html-keyboard-response","15","11825","0.0-7.0-2.2","feedback","","","","","","","",""
"null","<img style='width:200px; height:200px; margin-left: 95px; margin-right: 95px;' src='stim/fixation.png'>","null","html-keyboard-response","16","12841","0.0-7.0-0.3","fixation","","","","","","","",""
"302.1000000000022","<img src='stim/a/Field17.bmp'><img style='width:200px; height:200px; margin-bottom: 0px;' src='stim/fixation.png'><img src='stim/a/Field13.bmp'>","49","html-keyboard-response","17","13146","0.0-7.0-1.3","practice","ef","1","valid","6","e","avoid:lose","50","0"
"null","<img style='border: 5px solid #808080;' src='stim/a/Field17.bmp'><img style='width:100px; height:100px; padding-right: 75px; padding-left: 75px; margin-bottom: 50px;' src='stim/lose.bmp'><img style='border: 5px solid #ffffff;  padding-left:15px;' src='stim/a/Field13.bmp'>","null","html-keyboard-response","18","14162","0.0-7.0-2.3","feedback","","","","","","","",""
"null","<img style='width:200px; height:200px; margin-left: 95px; margin-right: 95px;' src='stim/fixation.png'>","null","html-keyboard-response","19","15164","0.0-7.0-0.4","fixation","","","","","","","",""
"314.5","<img src='stim/a/Field4.bmp'><img style='width:200px; height:200px; margin-bottom: 0px;' src='stim/fixation.png'><img src='stim/a/Field10.bmp'>","49","html-keyboard-response","20","15482","0.0-7.0-1.4","practice","ab","1","valid","6","a","win:stay","49","1"
"null","<img style='border: 5px solid #808080;' src='stim/a/Field4.bmp'><img style='width:100px; height:100px; padding-right: 75px; padding-left: 75px; margin-bottom: 50px;' src='stim/win.bmp'><img style='border: 5px solid #ffffff;  padding-left:15px;' src='stim/a/Field10.bmp'>","null","html-keyboard-response","21","16499","0.0-7.0-2.4","feedback","","","","","","","",""
"null","<img style='width:200px; height:200px; margin-left: 95px; margin-right: 95px;' src='stim/fixation.png'>","null","html-keyboard-response","22","17515","0.0-7.0-0.5","fixation","","","","","","","",""
"339.5","<img src='stim/a/Field17.bmp'><img style='width:200px; height:200px; margin-bottom: 0px;' src='stim/fixation.png'><img src='stim/a/Field13.bmp'>","49","html-keyboard-response","23","17858","0.0-7.0-1.5","practice","ef","1","valid","6","e","avoid:lose","50","0"
"null","<img style='border: 5px solid #808080;' src='stim/a/Field17.bmp'><img style='width:100px; height:100px; padding-right: 75px; padding-left: 75px; margin-bottom: 50px;' src='stim/lose.bmp'><img style='border: 5px solid #ffffff;  padding-left:15px;' src='stim/a/Field13.bmp'>","null","html-keyboard-response","24","18874","0.0-7.0-2.5","feedback","","","","","","","",""
"null","<img style='width:200px; height:200px; margin-left: 95px; margin-right: 95px;' src='stim/fixation.png'>","null","html-keyboard-response","25","19875","0.0-7.0-0.6","fixation","","","","","","","",""
"307.2000000000007","<img src='stim/a/Field10.bmp'><img style='width:200px; height:200px; margin-bottom: 0px;' src='stim/fixation.png'><img src='stim/a/Field4.bmp'>","49","html-keyboard-response","26","20186","0.0-7.0-1.6","practice","ab","1","valid","6","a","win:stay","50","0"
"null","<img style='border: 5px solid #808080;' src='stim/a/Field10.bmp'><img style='width:100px; height:100px; padding-right: 75px; padding-left: 75px; margin-bottom: 50px;' src='stim/not_winner.png'><img style='border: 5px solid #ffffff;  padding-left:15px;' src='stim/a/Field4.bmp'>","null","html-keyboard-response","27","21200","0.0-7.0-2.6","feedback","","","","","","","",""
"null","<img style='width:200px; height:200px; margin-left: 95px; margin-right: 95px;' src='stim/fixation.png'>","null","html-keyboard-response","28","22204","0.0-7.0-0.7","fixation","","","","","","","",""
"267.2999999999993","<img src='stim/a/Field13.bmp'><img style='width:200px; height:200px; margin-bottom: 0px;' src='stim/fixation.png'><img src='stim/a/Field17.bmp'>","49","html-keyboard-response","29","22474","0.0-7.0-1.7","practice","ef","1","valid","6","e","avoid:lose","49","1"
"null","<img style='border: 5px solid #808080;' src='stim/a/Field13.bmp'><img style='width:100px; height:100px; padding-right: 75px; padding-left: 75px; margin-bottom: 50px;' src='stim/keep_money.png'><img style='border: 5px solid #ffffff;  padding-left:15px;' src='stim/a/Field17.bmp'>","null","html-keyboard-response","30","23491","0.0-7.0-2.7","feedback","","","","","","","",""
"null","<img style='width:200px; height:200px; margin-left: 95px; margin-right: 95px;' src='stim/fixation.png'>","null","html-keyboard-response","31","24508","0.0-7.0-0.8","fixation","","","","","","","",""
"331","<img src='stim/a/Field10.bmp'><img style='width:200px; height:200px; margin-bottom: 0px;' src='stim/fixation.png'><img src='stim/a/Field4.bmp'>","49","html-keyboard-response","32","24842","0.0-7.0-1.8","practice","ab","1","valid","6","a","win:stay","50","0"
"null","<img style='border: 5px solid #808080;' src='stim/a/Field10.bmp'><img style='width:100px; height:100px; padding-right: 75px; padding-left: 75px; margin-bottom: 50px;' src='stim/not_winner.png'><img style='border: 5px solid #ffffff;  padding-left:15px;' src='stim/a/Field4.bmp'>","null","html-keyboard-response","33","25858","0.0-7.0-2.8","feedback","","","","","","","",""
"null","<img style='width:200px; height:200px; margin-left: 95px; margin-right: 95px;' src='stim/fixation.png'>","null","html-keyboard-response","34","26861","0.0-7.0-0.9","fixation","","","","","","","",""
"311.8000000000029","<img src='stim/a/Field4.bmp'><img style='width:200px; height:200px; margin-bottom: 0px;' src='stim/fixation.png'><img src='stim/a/Field10.bmp'>","49","html-keyboard-response","35","27177","0.0-7.0-1.9","practice","ab","1","valid","6","a","win:stay","49","1"
"null","<img style='border: 5px solid #808080;' src='stim/a/Field4.bmp'><img style='width:100px; height:100px; padding-right: 75px; padding-left: 75px; margin-bottom: 50px;' src='stim/win.bmp'><img style='border: 5px solid #ffffff;  padding-left:15px;' src='stim/a/Field10.bmp'>","null","html-keyboard-response","36","28196","0.0-7.0-2.9","feedback","","","","","","","",""
"null","<img style='width:200px; height:200px; margin-left: 95px; margin-right: 95px;' src='stim/fixation.png'>","null","html-keyboard-response","37","29197","0.0-7.0-0.10","fixation","","","","","","","",""
"362.5","<img src='stim/a/Field17.bmp'><img style='width:200px; height:200px; margin-bottom: 0px;' src='stim/fixation.png'><img src='stim/a/Field13.bmp'>","49","html-keyboard-response","38","29562","0.0-7.0-1.10","practice","ef","1","valid","6","e","avoid:lose","50","0"
"null","<img style='border: 5px solid #808080;' src='stim/a/Field17.bmp'><img style='width:100px; height:100px; padding-right: 75px; padding-left: 75px; margin-bottom: 50px;' src='stim/lose.bmp'><img style='border: 5px solid #ffffff;  padding-left:15px;' src='stim/a/Field13.bmp'>","null","html-keyboard-response","39","30578","0.0-7.0-2.10","feedback","","","","","","","",""
"null","<img style='width:200px; height:200px; margin-left: 95px; margin-right: 95px;' src='stim/fixation.png'>","null","html-keyboard-response","40","31580","0.0-7.0-0.11","fixation","","","","","","","",""
"490.6999999999971","<img src='stim/a/Field13.bmp'><img style='width:200px; height:200px; margin-bottom: 0px;' src='stim/fixation.png'><img src='stim/a/Field17.bmp'>","49","html-keyboard-response","41","32074","0.0-7.0-1.11","practice","ef","1","valid","6","e","avoid:lose","49","1"
"null","<img style='border: 5px solid #808080;' src='stim/a/Field13.bmp'><img style='width:100px; height:100px; padding-right: 75px; padding-left: 75px; margin-bottom: 50px;' src='stim/keep_money.png'><img style='border: 5px solid #ffffff;  padding-left:15px;' src='stim/a/Field17.bmp'>","null","html-keyboard-response","42","33090","0.0-7.0-2.11","feedback","","","","","","","",""
"1545.7999999999956","<p>Great!</p> <p>Press the spacebar continue.</p>","32","html-keyboard-response","43","35154","0.0-8.0","","","","","","","","",""
"532.6999999999971","<p>Now you will see some more pictures.</p><p>Do as before by pressing the 1 to choose the picture on the left, and pressing the 2 to choose the picture on the right.</p><p>Press the spacebar continue.</p>","32","html-keyboard-response","44","35689","0.0-9.0","","","","","","","","",""
"557.5999999999985","<h3 style=""color:red;"">For the picture pairs where you can win money:</h3><p>You will not win every time you choose the ""best"" picture;</p><p>However, one picture gets rewarded much more often than the other picture.</p><h3 style=""color:red;"">For the picture pairs where the best you can do is keep your money:</h3><p>You will not be able to keep your money every time you choose the ""best"" picture;</p><p>However, one picture allows you to keep your money much more often than the other picture.</p><p>Press the spacebar continue.</p>","32","html-keyboard-response","45","36250","0.0-10.0","","","","","","","","",""
"null","<img style='width:200px; height:200px; margin-left: 95px; margin-right: 95px;' src='stim/fixation.png'>","null","html-keyboard-response","46","36765","0.0-11.0-0.0","fixation","","","","","","","",""
"120.70000000000436","<img src='stim/a/Field12.bmp'><img style='width:200px; height:200px; margin-bottom: 0px;' src='stim/fixation.png'><img src='stim/a/Field9.bmp'>","49","html-keyboard-response","47","36889","0.0-11.0-1.0","training","ef","0.9","valid","20","e","avoid:lose","50","0"
"null","<img style='border: 5px solid #808080;' src='stim/a/Field12.bmp'><img style='width:100px; height:100px; padding-right: 75px; padding-left: 75px; margin-bottom: 50px;' src='stim/lose.bmp'><img style='border: 5px solid #ffffff;  padding-left:15px;' src='stim/a/Field9.bmp'>","null","html-keyboard-response","48","37905","0.0-11.0-2.0","feedback","","","","","","","",""
"null","<img style='width:200px; height:200px; margin-left: 95px; margin-right: 95px;' src='stim/fixation.png'>","null","html-keyboard-response","49","38921","0.0-11.0-0.1","fixation","","","","","","","",""
"334.20000000000436","<img src='stim/a/Field5.bmp'><img style='width:200px; height:200px; margin-bottom: 0px;' src='stim/fixation.png'><img src='stim/a/Field3.bmp'>","49","html-keyboard-response","50","39258","0.0-11.0-1.1","training","ab","0.9","valid","20","a","win:stay","50","0"
"null","<img style='border: 5px solid #808080;' src='stim/a/Field5.bmp'><img style='width:100px; height:100px; padding-right: 75px; padding-left: 75px; margin-bottom: 50px;' src='stim/not_winner.png'><img style='border: 5px solid #ffffff;  padding-left:15px;' src='stim/a/Field3.bmp'>","null","html-keyboard-response","51","40272","0.0-11.0-2.1","feedback","","","","","","","",""
"null","<img style='width:200px; height:200px; margin-left: 95px; margin-right: 95px;' src='stim/fixation.png'>","null","html-keyboard-response","52","41289","0.0-11.0-0.2","fixation","","","","","","","",""
"310.5","<img src='stim/a/Field5.bmp'><img style='width:200px; height:200px; margin-bottom: 0px;' src='stim/fixation.png'><img src='stim/a/Field3.bmp'>","49","html-keyboard-response","53","41601","0.0-11.0-1.2","training","ab","0.9","invalid","20","a","win:stay","50","0"
"null","<img style='border: 5px solid #808080;' src='stim/a/Field5.bmp'><img style='width:100px; height:100px; padding-right: 75px; padding-left: 75px; margin-bottom: 50px;' src='stim/win.bmp'><img style='border: 5px solid #ffffff;  padding-left:15px;' src='stim/a/Field3.bmp'>","null","html-keyboard-response","54","42618","0.0-11.0-2.2","feedback","","","","","","","",""
"null","<img style='width:200px; height:200px; margin-left: 95px; margin-right: 95px;' src='stim/fixation.png'>","null","html-keyboard-response","55","43622","0.0-11.0-0.3","fixation","","","","","","","",""
"257","<img src='stim/a/Field15.bmp'><img style='width:200px; height:200px; margin-bottom: 0px;' src='stim/fixation.png'><img src='stim/a/Field16.bmp'>","49","html-keyboard-response","56","43882","0.0-11.0-1.3","training","gh","0.8","invalid","20","g","avoid:lose","49","1"
"null","<img style='border: 5px solid #808080;' src='stim/a/Field15.bmp'><img style='width:100px; height:100px; padding-right: 75px; padding-left: 75px; margin-bottom: 50px;' src='stim/lose.bmp'><img style='border: 5px solid #ffffff;  padding-left:15px;' src='stim/a/Field16.bmp'>","null","html-keyboard-response","57","44898","0.0-11.0-2.3","feedback","","","","","","","",""
"null","<img style='width:200px; height:200px; margin-left: 95px; margin-right: 95px;' src='stim/fixation.png'>","null","html-keyboard-response","58","45900","0.0-11.0-0.4","fixation","","","","","","","",""
"298.90000000000145","<img src='stim/a/Field5.bmp'><img style='width:200px; height:200px; margin-bottom: 0px;' src='stim/fixation.png'><img src='stim/a/Field3.bmp'>","49","html-keyboard-response","59","46201","0.0-11.0-1.4","training","ab","0.9","valid","20","a","win:stay","50","0"
"null","<img style='border: 5px solid #808080;' src='stim/a/Field5.bmp'><img style='width:100px; height:100px; padding-right: 75px; padding-left: 75px; margin-bottom: 50px;' src='stim/not_winner.png'><img style='border: 5px solid #ffffff;  padding-left:15px;' src='stim/a/Field3.bmp'>","null","html-keyboard-response","60","47219","0.0-11.0-2.4","feedback","","","","","","","",""
"null","<img style='width:200px; height:200px; margin-left: 95px; margin-right: 95px;' src='stim/fixation.png'>","null","html-keyboard-response","61","48235","0.0-11.0-0.5","fixation","","","","","","","",""
"308.20000000000436","<img src='stim/a/Field3.bmp'><img style='width:200px; height:200px; margin-bottom: 0px;' src='stim/fixation.png'><img src='stim/a/Field5.bmp'>","49","html-keyboard-response","62","48546","0.0-11.0-1.5","training","ab","0.9","valid","20","a","win:stay","49","1"
"null","<img style='border: 5px solid #808080;' src='stim/a/Field3.bmp'><img style='width:100px; height:100px; padding-right: 75px; padding-left: 75px; margin-bottom: 50px;' src='stim/win.bmp'><img style='border: 5px solid #ffffff;  padding-left:15px;' src='stim/a/Field5.bmp'>","null","html-keyboard-response","63","49561","0.0-11.0-2.5","feedback","","","","","","","",""
"null","<img style='width:200px; height:200px; margin-left: 95px; margin-right: 95px;' src='stim/fixation.png'>","null","html-keyboard-response","64","50577","0.0-11.0-0.6","fixation","","","","","","","",""
"334.3000000000029","<img src='stim/a/Field12.bmp'><img style='width:200px; height:200px; margin-bottom: 0px;' src='stim/fixation.png'><img src='stim/a/Field9.bmp'>","49","html-keyboard-response","65","50913","0.0-11.0-1.6","training","ef","0.9","valid","20","e","avoid:lose","50","0"
"null","<img style='border: 5px solid #808080;' src='stim/a/Field12.bmp'><img style='width:100px; height:100px; padding-right: 75px; padding-left: 75px; margin-bottom: 50px;' src='stim/lose.bmp'><img style='border: 5px solid #ffffff;  padding-left:15px;' src='stim/a/Field9.bmp'>","null","html-keyboard-response","66","51929","0.0-11.0-2.6","feedback","","","","","","","",""
"null","<img style='width:200px; height:200px; margin-left: 95px; margin-right: 95px;' src='stim/fixation.png'>","null","html-keyboard-response","67","52944","0.0-11.0-0.7","fixation","","","","","","","",""
"254.5","<img src='stim/a/Field3.bmp'><img style='width:200px; height:200px; margin-bottom: 0px;' src='stim/fixation.png'><img src='stim/a/Field5.bmp'>","49","html-keyboard-response","68","53202","0.0-11.0-1.7","training","ab","0.9","valid","20","a","win:stay","49","1"
"null","<img style='border: 5px solid #808080;' src='stim/a/Field3.bmp'><img style='width:100px; height:100px; padding-right: 75px; padding-left: 75px; margin-bottom: 50px;' src='stim/win.bmp'><img style='border: 5px solid #ffffff;  padding-left:15px;' src='stim/a/Field5.bmp'>","null","html-keyboard-response","69","54216","0.0-11.0-2.7","feedback","","","","","","","",""
"null","<img style='width:200px; height:200px; margin-left: 95px; margin-right: 95px;' src='stim/fixation.png'>","null","html-keyboard-response","70","55232","0.0-11.0-0.8","fixation","","","","","","","",""
"343.3000000000029","<img src='stim/a/Field14.bmp'><img style='width:200px; height:200px; margin-bottom: 0px;' src='stim/fixation.png'><img src='stim/a/Field11.bmp'>","49","html-keyboard-response","71","55577","0.0-11.0-1.8","training","cd","0.8","valid","20","c","win:stay","49","1"
"null","<img style='border: 5px solid #808080;' src='stim/a/Field14.bmp'><img style='width:100px; height:100px; padding-right: 75px; padding-left: 75px; margin-bottom: 50px;' src='stim/win.bmp'><img style='border: 5px solid #ffffff;  padding-left:15px;' src='stim/a/Field11.bmp'>","null","html-keyboard-response","72","56594","0.0-11.0-2.8","feedback","","","","","","","",""
"null","<img style='width:200px; height:200px; margin-left: 95px; margin-right: 95px;' src='stim/fixation.png'>","null","html-keyboard-response","73","57609","0.0-11.0-0.9","fixation","","","","","","","",""
"302.3000000000029","<img src='stim/a/Field14.bmp'><img style='width:200px; height:200px; margin-bottom: 0px;' src='stim/fixation.png'><img src='stim/a/Field11.bmp'>","49","html-keyboard-response","74","57914","0.0-11.0-1.9","training","cd","0.8","valid","20","c","win:stay","49","1"
"null","<img style='border: 5px solid #808080;' src='stim/a/Field14.bmp'><img style='width:100px; height:100px; padding-right: 75px; padding-left: 75px; margin-bottom: 50px;' src='stim/win.bmp'><img style='border: 5px solid #ffffff;  padding-left:15px;' src='stim/a/Field11.bmp'>","null","html-keyboard-response","75","58932","0.0-11.0-2.9","feedback","","","","","","","",""
"null","<img style='width:200px; height:200px; margin-left: 95px; margin-right: 95px;' src='stim/fixation.png'>","null","html-keyboard-response","76","59935","0.0-11.0-0.10","fixation","","","","","","","",""
"279.6999999999971","<img src='stim/a/Field12.bmp'><img style='width:200px; height:200px; margin-bottom: 0px;' src='stim/fixation.png'><img src='stim/a/Field9.bmp'>","49","html-keyboard-response","77","60217","0.0-11.0-1.10","training","ef","0.9","valid","20","e","avoid:lose","50","0"
"null","<img style='border: 5px solid #808080;' src='stim/a/Field12.bmp'><img style='width:100px; height:100px; padding-right: 75px; padding-left: 75px; margin-bottom: 50px;' src='stim/lose.bmp'><img style='border: 5px solid #ffffff;  padding-left:15px;' src='stim/a/Field9.bmp'>","null","html-keyboard-response","78","61234","0.0-11.0-2.10","feedback","","","","","","","",""
"null","<img style='width:200px; height:200px; margin-left: 95px; margin-right: 95px;' src='stim/fixation.png'>","null","html-keyboard-response","79","62248","0.0-11.0-0.11","fixation","","","","","","","",""
"263","<img src='stim/a/Field3.bmp'><img style='width:200px; height:200px; margin-bottom: 0px;' src='stim/fixation.png'><img src='stim/a/Field5.bmp'>","49","html-keyboard-response","80","62513","0.0-11.0-1.11","training","ab","0.9","valid","20","a","win:stay","49","1"
"null","<img style='border: 5px solid #808080;' src='stim/a/Field3.bmp'><img style='width:100px; height:100px; padding-right: 75px; padding-left: 75px; margin-bottom: 50px;' src='stim/win.bmp'><img style='border: 5px solid #ffffff;  padding-left:15px;' src='stim/a/Field5.bmp'>","null","html-keyboard-response","81","63531","0.0-11.0-2.11","feedback","","","","","","","",""
"null","<img style='width:200px; height:200px; margin-left: 95px; margin-right: 95px;' src='stim/fixation.png'>","null","html-keyboard-response","82","64532","0.0-11.0-0.12","fixation","","","","","","","",""
"361.90000000000873","<img src='stim/a/Field11.bmp'><img style='width:200px; height:200px; margin-bottom: 0px;' src='stim/fixation.png'><img src='stim/a/Field14.bmp'>","49","html-keyboard-response","83","64898","0.0-11.0-1.12","training","cd","0.8","invalid","20","c","win:stay","50","0"
"null","<img style='border: 5px solid #808080;' src='stim/a/Field11.bmp'><img style='width:100px; height:100px; padding-right: 75px; padding-left: 75px; margin-bottom: 50px;' src='stim/win.bmp'><img style='border: 5px solid #ffffff;  padding-left:15px;' src='stim/a/Field14.bmp'>","null","html-keyboard-response","84","65915","0.0-11.0-2.12","feedback","","","","","","","",""
"null","<img style='width:200px; height:200px; margin-left: 95px; margin-right: 95px;' src='stim/fixation.png'>","null","html-keyboard-response","85","66918","0.0-11.0-0.13","fixation","","","","","","","",""
"337","<img src='stim/a/Field14.bmp'><img style='width:200px; height:200px; margin-bottom: 0px;' src='stim/fixation.png'><img src='stim/a/Field11.bmp'>","49","html-keyboard-response","86","67258","0.0-11.0-1.13","training","cd","0.8","valid","20","c","win:stay","49","1"
"null","<img style='border: 5px solid #808080;' src='stim/a/Field14.bmp'><img style='width:100px; height:100px; padding-right: 75px; padding-left: 75px; margin-bottom: 50px;' src='stim/win.bmp'><img style='border: 5px solid #ffffff;  padding-left:15px;' src='stim/a/Field11.bmp'>","null","html-keyboard-response","87","68272","0.0-11.0-2.13","feedback","","","","","","","",""
"null","<img style='width:200px; height:200px; margin-left: 95px; margin-right: 95px;' src='stim/fixation.png'>","null","html-keyboard-response","88","69289","0.0-11.0-0.14","fixation","","","","","","","",""
"342","<img src='stim/a/Field5.bmp'><img style='width:200px; height:200px; margin-bottom: 0px;' src='stim/fixation.png'><img src='stim/a/Field3.bmp'>","49","html-keyboard-response","89","69634","0.0-11.0-1.14","training","ab","0.9","valid","20","a","win:stay","50","0"
"null","<img style='border: 5px solid #808080;' src='stim/a/Field5.bmp'><img style='width:100px; height:100px; padding-right: 75px; padding-left: 75px; margin-bottom: 50px;' src='stim/not_winner.png'><img style='border: 5px solid #ffffff;  padding-left:15px;' src='stim/a/Field3.bmp'>","null","html-keyboard-response","90","70649","0.0-11.0-2.14","feedback","","","","","","","",""
"null","<img style='width:200px; height:200px; margin-left: 95px; margin-right: 95px;' src='stim/fixation.png'>","null","html-keyboard-response","91","71653","0.0-11.0-0.15","fixation","","","","","","","",""
"321.3999999999942","<img src='stim/a/Field14.bmp'><img style='width:200px; height:200px; margin-bottom: 0px;' src='stim/fixation.png'><img src='stim/a/Field11.bmp'>","49","html-keyboard-response","92","71978","0.0-11.0-1.15","training","cd","0.8","valid","20","c","win:stay","49","1"
"null","<img style='border: 5px solid #808080;' src='stim/a/Field14.bmp'><img style='width:100px; height:100px; padding-right: 75px; padding-left: 75px; margin-bottom: 50px;' src='stim/win.bmp'><img style='border: 5px solid #ffffff;  padding-left:15px;' src='stim/a/Field11.bmp'>","null","html-keyboard-response","93","72994","0.0-11.0-2.15","feedback","","","","","","","",""
"null","<img style='width:200px; height:200px; margin-left: 95px; margin-right: 95px;' src='stim/fixation.png'>","null","html-keyboard-response","94","74001","0.0-11.0-0.16","fixation","","","","","","","",""
"461.8999999999942","<img src='stim/a/Field11.bmp'><img style='width:200px; height:200px; margin-bottom: 0px;' src='stim/fixation.png'><img src='stim/a/Field14.bmp'>","49","html-keyboard-response","95","74465","0.0-11.0-1.16","training","cd","0.8","invalid","20","c","win:stay","50","0"
"null","<img style='border: 5px solid #808080;' src='stim/a/Field11.bmp'><img style='width:100px; height:100px; padding-right: 75px; padding-left: 75px; margin-bottom: 50px;' src='stim/win.bmp'><img style='border: 5px solid #ffffff;  padding-left:15px;' src='stim/a/Field14.bmp'>","null","html-keyboard-response","96","75481","0.0-11.0-2.16","feedback","","","","","","","",""
"null","<img style='width:200px; height:200px; margin-left: 95px; margin-right: 95px;' src='stim/fixation.png'>","null","html-keyboard-response","97","76498","0.0-11.0-0.17","fixation","","","","","","","",""
"333.3999999999942","<img src='stim/a/Field3.bmp'><img style='width:200px; height:200px; margin-bottom: 0px;' src='stim/fixation.png'><img src='stim/a/Field5.bmp'>","49","html-keyboard-response","98","76834","0.0-11.0-1.17","training","ab","0.9","valid","20","a","win:stay","49","1"
"null","<img style='border: 5px solid #808080;' src='stim/a/Field3.bmp'><img style='width:100px; height:100px; padding-right: 75px; padding-left: 75px; margin-bottom: 50px;' src='stim/win.bmp'><img style='border: 5px solid #ffffff;  padding-left:15px;' src='stim/a/Field5.bmp'>","null","html-keyboard-response","99","77851","0.0-11.0-2.17","feedback","","","","","","","",""
"null","<img style='width:200px; height:200px; margin-left: 95px; margin-right: 95px;' src='stim/fixation.png'>","null","html-keyboard-response","100","78858","0.0-11.0-0.18","fixation","","","","","","","",""
"325.1000000000058","<img src='stim/a/Field15.bmp'><img style='width:200px; height:200px; margin-bottom: 0px;' src='stim/fixation.png'><img src='stim/a/Field16.bmp'>","49","html-keyboard-response","101","79186","0.0-11.0-1.18","training","gh","0.8","invalid","20","g","avoid:lose","49","1"
"null","<img style='border: 5px solid #808080;' src='stim/a/Field15.bmp'><img style='width:100px; height:100px; padding-right: 75px; padding-left: 75px; margin-bottom: 50px;' src='stim/lose.bmp'><img style='border: 5px solid #ffffff;  padding-left:15px;' src='stim/a/Field16.bmp'>","null","html-keyboard-response","102","80204","0.0-11.0-2.18","feedback","","","","","","","",""
"null","<img style='width:200px; height:200px; margin-left: 95px; margin-right: 95px;' src='stim/fixation.png'>","null","html-keyboard-response","103","81220","0.0-11.0-0.19","fixation","","","","","","","",""
"338.90000000000873","<img src='stim/a/Field9.bmp'><img style='width:200px; height:200px; margin-bottom: 0px;' src='stim/fixation.png'><img src='stim/a/Field12.bmp'>","49","html-keyboard-response","104","81562","0.0-11.0-1.19","training","ef","0.9","valid","20","e","avoid:lose","49","1"
"null","<img style='border: 5px solid #808080;' src='stim/a/Field9.bmp'><img style='width:100px; height:100px; padding-right: 75px; padding-left: 75px; margin-bottom: 50px;' src='stim/keep_money.png'><img style='border: 5px solid #ffffff;  padding-left:15px;' src='stim/a/Field12.bmp'>","null","html-keyboard-response","105","82579","0.0-11.0-2.19","feedback","","","","","","","",""
"null","<img style='width:200px; height:200px; margin-left: 95px; margin-right: 95px;' src='stim/fixation.png'>","null","html-keyboard-response","106","83581","0.0-11.0-0.20","fixation","","","","","","","",""
"305.5","<img src='stim/a/Field12.bmp'><img style='width:200px; height:200px; margin-bottom: 0px;' src='stim/fixation.png'><img src='stim/a/Field9.bmp'>","49","html-keyboard-response","107","83889","0.0-11.0-1.20","training","ef","0.9","valid","20","e","avoid:lose","50","0"
"null","<img style='border: 5px solid #808080;' src='stim/a/Field12.bmp'><img style='width:100px; height:100px; padding-right: 75px; padding-left: 75px; margin-bottom: 50px;' src='stim/lose.bmp'><img style='border: 5px solid #ffffff;  padding-left:15px;' src='stim/a/Field9.bmp'>","null","html-keyboard-response","108","84906","0.0-11.0-2.20","feedback","","","","","","","",""
"null","<img style='width:200px; height:200px; margin-left: 95px; margin-right: 95px;' src='stim/fixation.png'>","null","html-keyboard-response","109","85921","0.0-11.0-0.21","fixation","","","","","","","",""
"301.70000000001164","<img src='stim/a/Field16.bmp'><img style='width:200px; height:200px; margin-bottom: 0px;' src='stim/fixation.png'><img src='stim/a/Field15.bmp'>","49","html-keyboard-response","110","86226","0.0-11.0-1.21","training","gh","0.8","valid","20","g","avoid:lose","50","0"
"null","<img style='border: 5px solid #808080;' src='stim/a/Field16.bmp'><img style='width:100px; height:100px; padding-right: 75px; padding-left: 75px; margin-bottom: 50px;' src='stim/lose.bmp'><img style='border: 5px solid #ffffff;  padding-left:15px;' src='stim/a/Field15.bmp'>","null","html-keyboard-response","111","87241","0.0-11.0-2.21","feedback","","","","","","","",""
"null","<img style='width:200px; height:200px; margin-left: 95px; margin-right: 95px;' src='stim/fixation.png'>","null","html-keyboard-response","112","88242","0.0-11.0-0.22","fixation","","","","","","","",""
"315.8999999999942","<img src='stim/a/Field14.bmp'><img style='width:200px; height:200px; margin-bottom: 0px;' src='stim/fixation.png'><img src='stim/a/Field11.bmp'>","49","html-keyboard-response","113","88562","0.0-11.0-1.22","training","cd","0.8","invalid","20","c","win:stay","49","1"
"null","<img style='border: 5px solid #808080;' src='stim/a/Field14.bmp'><img style='width:100px; height:100px; padding-right: 75px; padding-left: 75px; margin-bottom: 50px;' src='stim/not_winner.png'><img style='border: 5px solid #ffffff;  padding-left:15px;' src='stim/a/Field11.bmp'>","null","html-keyboard-response","114","89582","0.0-11.0-2.22","feedback","","","","","","","",""
"null","<img style='width:200px; height:200px; margin-left: 95px; margin-right: 95px;' src='stim/fixation.png'>","null","html-keyboard-response","115","90598","0.0-11.0-0.23","fixation","","","","","","","",""
"336.20000000001164","<img src='stim/a/Field3.bmp'><img style='width:200px; height:200px; margin-bottom: 0px;' src='stim/fixation.png'><img src='stim/a/Field5.bmp'>","49","html-keyboard-response","116","90937","0.0-11.0-1.23","training","ab","0.9","valid","20","a","win:stay","49","1"
"null","<img style='border: 5px solid #808080;' src='stim/a/Field3.bmp'><img style='width:100px; height:100px; padding-right: 75px; padding-left: 75px; margin-bottom: 50px;' src='stim/win.bmp'><img style='border: 5px solid #ffffff;  padding-left:15px;' src='stim/a/Field5.bmp'>","null","html-keyboard-response","117","91941","0.0-11.0-2.23","feedback","","","","","","","",""
"null","<img style='width:200px; height:200px; margin-left: 95px; margin-right: 95px;' src='stim/fixation.png'>","null","html-keyboard-response","118","92957","0.0-11.0-0.24","fixation","","","","","","","",""
"337.6999999999971","<img src='stim/a/Field11.bmp'><img style='width:200px; height:200px; margin-bottom: 0px;' src='stim/fixation.png'><img src='stim/a/Field14.bmp'>","49","html-keyboard-response","119","93297","0.0-11.0-1.24","training","cd","0.8","valid","20","c","win:stay","50","0"
"null","<img style='border: 5px solid #808080;' src='stim/a/Field11.bmp'><img style='width:100px; height:100px; padding-right: 75px; padding-left: 75px; margin-bottom: 50px;' src='stim/not_winner.png'><img style='border: 5px solid #ffffff;  padding-left:15px;' src='stim/a/Field14.bmp'>","null","html-keyboard-response","120","94316","0.0-11.0-2.24","feedback","","","","","","","",""
"null","<img style='width:200px; height:200px; margin-left: 95px; margin-right: 95px;' src='stim/fixation.png'>","null","html-keyboard-response","121","95330","0.0-11.0-0.25","fixation","","","","","","","",""
"316","<img src='stim/a/Field11.bmp'><img style='width:200px; height:200px; margin-bottom: 0px;' src='stim/fixation.png'><img src='stim/a/Field14.bmp'>","49","html-keyboard-response","122","95650","0.0-11.0-1.25","training","cd","0.8","valid","20","c","win:stay","50","0"
"null","<img style='border: 5px solid #808080;' src='stim/a/Field11.bmp'><img style='width:100px; height:100px; padding-right: 75px; padding-left: 75px; margin-bottom: 50px;' src='stim/not_winner.png'><img style='border: 5px solid #ffffff;  padding-left:15px;' src='stim/a/Field14.bmp'>","null","html-keyboard-response","123","96669","0.0-11.0-2.25","feedback","","","","","","","",""
"null","<img style='width:200px; height:200px; margin-left: 95px; margin-right: 95px;' src='stim/fixation.png'>","null","html-keyboard-response","124","97685","0.0-11.0-0.26","fixation","","","","","","","",""
"313.8000000000029","<img src='stim/a/Field11.bmp'><img style='width:200px; height:200px; margin-bottom: 0px;' src='stim/fixation.png'><img src='stim/a/Field14.bmp'>","49","html-keyboard-response","125","98001","0.0-11.0-1.26","training","cd","0.8","valid","20","c","win:stay","50","0"
"null","<img style='border: 5px solid #808080;' src='stim/a/Field11.bmp'><img style='width:100px; height:100px; padding-right: 75px; padding-left: 75px; margin-bottom: 50px;' src='stim/not_winner.png'><img style='border: 5px solid #ffffff;  padding-left:15px;' src='stim/a/Field14.bmp'>","null","html-keyboard-response","126","99020","0.0-11.0-2.26","feedback","","","","","","","",""
"null","<img style='width:200px; height:200px; margin-left: 95px; margin-right: 95px;' src='stim/fixation.png'>","null","html-keyboard-response","127","100024","0.0-11.0-0.27","fixation","","","","","","","",""
"359.09999999999127","<img src='stim/a/Field3.bmp'><img style='width:200px; height:200px; margin-bottom: 0px;' src='stim/fixation.png'><img src='stim/a/Field5.bmp'>","49","html-keyboard-response","128","100386","0.0-11.0-1.27","training","ab","0.9","invalid","20","a","win:stay","49","1"
"null","<img style='border: 5px solid #808080;' src='stim/a/Field3.bmp'><img style='width:100px; height:100px; padding-right: 75px; padding-left: 75px; margin-bottom: 50px;' src='stim/not_winner.png'><img style='border: 5px solid #ffffff;  padding-left:15px;' src='stim/a/Field5.bmp'>","null","html-keyboard-response","129","101402","0.0-11.0-2.27","feedback","","","","","","","",""
"null","<img style='width:200px; height:200px; margin-left: 95px; margin-right: 95px;' src='stim/fixation.png'>","null","html-keyboard-response","130","102419","0.0-11.0-0.28","fixation","","","","","","","",""
"275.8000000000029","<img src='stim/a/Field15.bmp'><img style='width:200px; height:200px; margin-bottom: 0px;' src='stim/fixation.png'><img src='stim/a/Field16.bmp'>","49","html-keyboard-response","131","102697","0.0-11.0-1.28","training","gh","0.8","valid","20","g","avoid:lose","49","1"
"null","<img style='border: 5px solid #808080;' src='stim/a/Field15.bmp'><img style='width:100px; height:100px; padding-right: 75px; padding-left: 75px; margin-bottom: 50px;' src='stim/keep_money.png'><img style='border: 5px solid #ffffff;  padding-left:15px;' src='stim/a/Field16.bmp'>","null","html-keyboard-response","132","103717","0.0-11.0-2.28","feedback","","","","","","","",""
"null","<img style='width:200px; height:200px; margin-left: 95px; margin-right: 95px;' src='stim/fixation.png'>","null","html-keyboard-response","133","104719","0.0-11.0-0.29","fixation","","","","","","","",""
"335.09999999999127","<img src='stim/a/Field14.bmp'><img style='width:200px; height:200px; margin-bottom: 0px;' src='stim/fixation.png'><img src='stim/a/Field11.bmp'>","49","html-keyboard-response","134","105058","0.0-11.0-1.29","training","cd","0.8","valid","20","c","win:stay","49","1"
"null","<img style='border: 5px solid #808080;' src='stim/a/Field14.bmp'><img style='width:100px; height:100px; padding-right: 75px; padding-left: 75px; margin-bottom: 50px;' src='stim/win.bmp'><img style='border: 5px solid #ffffff;  padding-left:15px;' src='stim/a/Field11.bmp'>","null","html-keyboard-response","135","106075","0.0-11.0-2.29","feedback","","","","","","","",""
"null","<img style='width:200px; height:200px; margin-left: 95px; margin-right: 95px;' src='stim/fixation.png'>","null","html-keyboard-response","136","107091","0.0-11.0-0.30","fixation","","","","","","","",""
"355.20000000001164","<img src='stim/a/Field12.bmp'><img style='width:200px; height:200px; margin-bottom: 0px;' src='stim/fixation.png'><img src='stim/a/Field9.bmp'>","49","html-keyboard-response","137","107450","0.0-11.0-1.30","training","ef","0.9","valid","20","e","avoid:lose","50","0"
"null","<img style='border: 5px solid #808080;' src='stim/a/Field12.bmp'><img style='width:100px; height:100px; padding-right: 75px; padding-left: 75px; margin-bottom: 50px;' src='stim/lose.bmp'><img style='border: 5px solid #ffffff;  padding-left:15px;' src='stim/a/Field9.bmp'>","null","html-keyboard-response","138","108467","0.0-11.0-2.30","feedback","","","","","","","",""
"null","<img style='width:200px; height:200px; margin-left: 95px; margin-right: 95px;' src='stim/fixation.png'>","null","html-keyboard-response","139","109483","0.0-11.0-0.31","fixation","","","","","","","",""
"276.1000000000058","<img src='stim/a/Field5.bmp'><img style='width:200px; height:200px; margin-bottom: 0px;' src='stim/fixation.png'><img src='stim/a/Field3.bmp'>","49","html-keyboard-response","140","109762","0.0-11.0-1.31","training","ab","0.9","valid","20","a","win:stay","50","0"
"null","<img style='border: 5px solid #808080;' src='stim/a/Field5.bmp'><img style='width:100px; height:100px; padding-right: 75px; padding-left: 75px; margin-bottom: 50px;' src='stim/not_winner.png'><img style='border: 5px solid #ffffff;  padding-left:15px;' src='stim/a/Field3.bmp'>","null","html-keyboard-response","141","110780","0.0-11.0-2.31","feedback","","","","","","","",""
"null","<img style='width:200px; height:200px; margin-left: 95px; margin-right: 95px;' src='stim/fixation.png'>","null","html-keyboard-response","142","111783","0.0-11.0-0.32","fixation","","","","","","","",""
"335.8000000000029","<img src='stim/a/Field15.bmp'><img style='width:200px; height:200px; margin-bottom: 0px;' src='stim/fixation.png'><img src='stim/a/Field16.bmp'>","49","html-keyboard-response","143","112121","0.0-11.0-1.32","training","gh","0.8","valid","20","g","avoid:lose","49","1"
"null","<img style='border: 5px solid #808080;' src='stim/a/Field15.bmp'><img style='width:100px; height:100px; padding-right: 75px; padding-left: 75px; margin-bottom: 50px;' src='stim/keep_money.png'><img style='border: 5px solid #ffffff;  padding-left:15px;' src='stim/a/Field16.bmp'>","null","html-keyboard-response","144","113139","0.0-11.0-2.32","feedback","","","","","","","",""
"null","<img style='width:200px; height:200px; margin-left: 95px; margin-right: 95px;' src='stim/fixation.png'>","null","html-keyboard-response","145","114153","0.0-11.0-0.33","fixation","","","","","","","",""
"533.6000000000058","<img src='stim/a/Field11.bmp'><img style='width:200px; height:200px; margin-bottom: 0px;' src='stim/fixation.png'><img src='stim/a/Field14.bmp'>","49","html-keyboard-response","146","114690","0.0-11.0-1.33","training","cd","0.8","valid","20","c","win:stay","50","0"
"null","<img style='border: 5px solid #808080;' src='stim/a/Field11.bmp'><img style='width:100px; height:100px; padding-right: 75px; padding-left: 75px; margin-bottom: 50px;' src='stim/not_winner.png'><img style='border: 5px solid #ffffff;  padding-left:15px;' src='stim/a/Field14.bmp'>","null","html-keyboard-response","147","115707","0.0-11.0-2.33","feedback","","","","","","","",""
"null","<img style='width:200px; height:200px; margin-left: 95px; margin-right: 95px;' src='stim/fixation.png'>","null","html-keyboard-response","148","116708","0.0-11.0-0.34","fixation","","","","","","","",""
"362.1999999999971","<img src='stim/a/Field3.bmp'><img style='width:200px; height:200px; margin-bottom: 0px;' src='stim/fixation.png'><img src='stim/a/Field5.bmp'>","49","html-keyboard-response","149","117074","0.0-11.0-1.34","training","ab","0.9","valid","20","a","win:stay","49","1"
"null","<img style='border: 5px solid #808080;' src='stim/a/Field3.bmp'><img style='width:100px; height:100px; padding-right: 75px; padding-left: 75px; margin-bottom: 50px;' src='stim/win.bmp'><img style='border: 5px solid #ffffff;  padding-left:15px;' src='stim/a/Field5.bmp'>","null","html-keyboard-response","150","118091","0.0-11.0-2.34","feedback","","","","","","","",""
"null","<img style='width:200px; height:200px; margin-left: 95px; margin-right: 95px;' src='stim/fixation.png'>","null","html-keyboard-response","151","119096","0.0-11.0-0.35","fixation","","","","","","","",""
"542.8999999999942","<img src='stim/a/Field16.bmp'><img style='width:200px; height:200px; margin-bottom: 0px;' src='stim/fixation.png'><img src='stim/a/Field15.bmp'>","49","html-keyboard-response","152","119642","0.0-11.0-1.35","training","gh","0.8","valid","20","g","avoid:lose","50","0"
"null","<img style='border: 5px solid #808080;' src='stim/a/Field16.bmp'><img style='width:100px; height:100px; padding-right: 75px; padding-left: 75px; margin-bottom: 50px;' src='stim/lose.bmp'><img style='border: 5px solid #ffffff;  padding-left:15px;' src='stim/a/Field15.bmp'>","null","html-keyboard-response","153","120660","0.0-11.0-2.35","feedback","","","","","","","",""
"null","<img style='width:200px; height:200px; margin-left: 95px; margin-right: 95px;' src='stim/fixation.png'>","null","html-keyboard-response","154","121663","0.0-11.0-0.36","fixation","","","","","","","",""
"343.8000000000029","<img src='stim/a/Field16.bmp'><img style='width:200px; height:200px; margin-bottom: 0px;' src='stim/fixation.png'><img src='stim/a/Field15.bmp'>","49","html-keyboard-response","155","122010","0.0-11.0-1.36","training","gh","0.8","valid","20","g","avoid:lose","50","0"
"null","<img style='border: 5px solid #808080;' src='stim/a/Field16.bmp'><img style='width:100px; height:100px; padding-right: 75px; padding-left: 75px; margin-bottom: 50px;' src='stim/lose.bmp'><img style='border: 5px solid #ffffff;  padding-left:15px;' src='stim/a/Field15.bmp'>","null","html-keyboard-response","156","123029","0.0-11.0-2.36","feedback","","","","","","","",""
"null","<img style='width:200px; height:200px; margin-left: 95px; margin-right: 95px;' src='stim/fixation.png'>","null","html-keyboard-response","157","124044","0.0-11.0-0.37","fixation","","","","","","","",""
"281.79999999998836","<img src='stim/a/Field9.bmp'><img style='width:200px; height:200px; margin-bottom: 0px;' src='stim/fixation.png'><img src='stim/a/Field12.bmp'>","49","html-keyboard-response","158","124330","0.0-11.0-1.37","training","ef","0.9","valid","20","e","avoid:lose","49","1"
"null","<img style='border: 5px solid #808080;' src='stim/a/Field9.bmp'><img style='width:100px; height:100px; padding-right: 75px; padding-left: 75px; margin-bottom: 50px;' src='stim/keep_money.png'><img style='border: 5px solid #ffffff;  padding-left:15px;' src='stim/a/Field12.bmp'>","null","html-keyboard-response","159","125348","0.0-11.0-2.37","feedback","","","","","","","",""
"null","<img style='width:200px; height:200px; margin-left: 95px; margin-right: 95px;' src='stim/fixation.png'>","null","html-keyboard-response","160","126365","0.0-11.0-0.38","fixation","","","","","","","",""
"329.9000000000233","<img src='stim/a/Field15.bmp'><img style='width:200px; height:200px; margin-bottom: 0px;' src='stim/fixation.png'><img src='stim/a/Field16.bmp'>","49","html-keyboard-response","161","126697","0.0-11.0-1.38","training","gh","0.8","valid","20","g","avoid:lose","49","1"
"null","<img style='border: 5px solid #808080;' src='stim/a/Field15.bmp'><img style='width:100px; height:100px; padding-right: 75px; padding-left: 75px; margin-bottom: 50px;' src='stim/keep_money.png'><img style='border: 5px solid #ffffff;  padding-left:15px;' src='stim/a/Field16.bmp'>","null","html-keyboard-response","162","127717","0.0-11.0-2.38","feedback","","","","","","","",""
"null","<img style='width:200px; height:200px; margin-left: 95px; margin-right: 95px;' src='stim/fixation.png'>","null","html-keyboard-response","163","128720","0.0-11.0-0.39","fixation","","","","","","","",""
"336.1000000000058","<img src='stim/a/Field9.bmp'><img style='width:200px; height:200px; margin-bottom: 0px;' src='stim/fixation.png'><img src='stim/a/Field12.bmp'>","49","html-keyboard-response","164","129059","0.0-11.0-1.39","training","ef","0.9","valid","20","e","avoid:lose","49","1"
"null","<img style='border: 5px solid #808080;' src='stim/a/Field9.bmp'><img style='width:100px; height:100px; padding-right: 75px; padding-left: 75px; margin-bottom: 50px;' src='stim/keep_money.png'><img style='border: 5px solid #ffffff;  padding-left:15px;' src='stim/a/Field12.bmp'>","null","html-keyboard-response","165","130077","0.0-11.0-2.39","feedback","","","","","","","",""
"null","<img style='width:200px; height:200px; margin-left: 95px; margin-right: 95px;' src='stim/fixation.png'>","null","html-keyboard-response","166","131093","0.0-11.0-0.40","fixation","","","","","","","",""
"337.79999999998836","<img src='stim/a/Field9.bmp'><img style='width:200px; height:200px; margin-bottom: 0px;' src='stim/fixation.png'><img src='stim/a/Field12.bmp'>","49","html-keyboard-response","167","131433","0.0-11.0-1.40","training","ef","0.9","valid","20","e","avoid:lose","49","1"
"null","<img style='border: 5px solid #808080;' src='stim/a/Field9.bmp'><img style='width:100px; height:100px; padding-right: 75px; padding-left: 75px; margin-bottom: 50px;' src='stim/keep_money.png'><img style='border: 5px solid #ffffff;  padding-left:15px;' src='stim/a/Field12.bmp'>","null","html-keyboard-response","168","132452","0.0-11.0-2.40","feedback","","","","","","","",""
"null","<img style='width:200px; height:200px; margin-left: 95px; margin-right: 95px;' src='stim/fixation.png'>","null","html-keyboard-response","169","133467","0.0-11.0-0.41","fixation","","","","","","","",""
"392.30000000001746","<img src='stim/a/Field15.bmp'><img style='width:200px; height:200px; margin-bottom: 0px;' src='stim/fixation.png'><img src='stim/a/Field16.bmp'>","49","html-keyboard-response","170","133866","0.0-11.0-1.41","training","gh","0.8","valid","20","g","avoid:lose","49","1"
"null","<img style='border: 5px solid #808080;' src='stim/a/Field15.bmp'><img style='width:100px; height:100px; padding-right: 75px; padding-left: 75px; margin-bottom: 50px;' src='stim/keep_money.png'><img style='border: 5px solid #ffffff;  padding-left:15px;' src='stim/a/Field16.bmp'>","null","html-keyboard-response","171","134884","0.0-11.0-2.41","feedback","","","","","","","",""
"null","<img style='width:200px; height:200px; margin-left: 95px; margin-right: 95px;' src='stim/fixation.png'>","null","html-keyboard-response","172","135900","0.0-11.0-0.42","fixation","","","","","","","",""
"346.79999999998836","<img src='stim/a/Field5.bmp'><img style='width:200px; height:200px; margin-bottom: 0px;' src='stim/fixation.png'><img src='stim/a/Field3.bmp'>","49","html-keyboard-response","173","136250","0.0-11.0-1.42","training","ab","0.9","valid","20","a","win:stay","50","0"
"null","<img style='border: 5px solid #808080;' src='stim/a/Field5.bmp'><img style='width:100px; height:100px; padding-right: 75px; padding-left: 75px; margin-bottom: 50px;' src='stim/not_winner.png'><img style='border: 5px solid #ffffff;  padding-left:15px;' src='stim/a/Field3.bmp'>","null","html-keyboard-response","174","137267","0.0-11.0-2.42","feedback","","","","","","","",""
"null","<img style='width:200px; height:200px; margin-left: 95px; margin-right: 95px;' src='stim/fixation.png'>","null","html-keyboard-response","175","138281","0.0-11.0-0.43","fixation","","","","","","","",""
"311.5","<img src='stim/a/Field9.bmp'><img style='width:200px; height:200px; margin-bottom: 0px;' src='stim/fixation.png'><img src='stim/a/Field12.bmp'>","49","html-keyboard-response","176","138596","0.0-11.0-1.43","training","ef","0.9","valid","20","e","avoid:lose","49","1"
"null","<img style='border: 5px solid #808080;' src='stim/a/Field9.bmp'><img style='width:100px; height:100px; padding-right: 75px; padding-left: 75px; margin-bottom: 50px;' src='stim/keep_money.png'><img style='border: 5px solid #ffffff;  padding-left:15px;' src='stim/a/Field12.bmp'>","null","html-keyboard-response","177","139613","0.0-11.0-2.43","feedback","","","","","","","",""
"null","<img style='width:200px; height:200px; margin-left: 95px; margin-right: 95px;' src='stim/fixation.png'>","null","html-keyboard-response","178","140629","0.0-11.0-0.44","fixation","","","","","","","",""
"289.19999999998253","<img src='stim/a/Field9.bmp'><img style='width:200px; height:200px; margin-bottom: 0px;' src='stim/fixation.png'><img src='stim/a/Field12.bmp'>","49","html-keyboard-response","179","140922","0.0-11.0-1.44","training","ef","0.9","valid","20","e","avoid:lose","49","1"
"null","<img style='border: 5px solid #808080;' src='stim/a/Field9.bmp'><img style='width:100px; height:100px; padding-right: 75px; padding-left: 75px; margin-bottom: 50px;' src='stim/keep_money.png'><img style='border: 5px solid #ffffff;  padding-left:15px;' src='stim/a/Field12.bmp'>","null","html-keyboard-response","180","141940","0.0-11.0-2.44","feedback","","","","","","","",""
"null","<img style='width:200px; height:200px; margin-left: 95px; margin-right: 95px;' src='stim/fixation.png'>","null","html-keyboard-response","181","142956","0.0-11.0-0.45","fixation","","","","","","","",""
"346.8999999999942","<img src='stim/a/Field5.bmp'><img style='width:200px; height:200px; margin-bottom: 0px;' src='stim/fixation.png'><img src='stim/a/Field3.bmp'>","49","html-keyboard-response","182","143306","0.0-11.0-1.45","training","ab","0.9","valid","20","a","win:stay","50","0"
"null","<img style='border: 5px solid #808080;' src='stim/a/Field5.bmp'><img style='width:100px; height:100px; padding-right: 75px; padding-left: 75px; margin-bottom: 50px;' src='stim/not_winner.png'><img style='border: 5px solid #ffffff;  padding-left:15px;' src='stim/a/Field3.bmp'>","null","html-keyboard-response","183","144325","0.0-11.0-2.45","feedback","","","","","","","",""
"null","<img style='width:200px; height:200px; margin-left: 95px; margin-right: 95px;' src='stim/fixation.png'>","null","html-keyboard-response","184","145340","0.0-11.0-0.46","fixation","","","","","","","",""
"299","<img src='stim/a/Field16.bmp'><img style='width:200px; height:200px; margin-bottom: 0px;' src='stim/fixation.png'><img src='stim/a/Field15.bmp'>","49","html-keyboard-response","185","145641","0.0-11.0-1.46","training","gh","0.8","valid","20","g","avoid:lose","50","0"
"null","<img style='border: 5px solid #808080;' src='stim/a/Field16.bmp'><img style='width:100px; height:100px; padding-right: 75px; padding-left: 75px; margin-bottom: 50px;' src='stim/lose.bmp'><img style='border: 5px solid #ffffff;  padding-left:15px;' src='stim/a/Field15.bmp'>","null","html-keyboard-response","186","146660","0.0-11.0-2.46","feedback","","","","","","","",""
"null","<img style='width:200px; height:200px; margin-left: 95px; margin-right: 95px;' src='stim/fixation.png'>","null","html-keyboard-response","187","147676","0.0-11.0-0.47","fixation","","","","","","","",""
"274.70000000001164","<img src='stim/a/Field3.bmp'><img style='width:200px; height:200px; margin-bottom: 0px;' src='stim/fixation.png'><img src='stim/a/Field5.bmp'>","49","html-keyboard-response","188","147953","0.0-11.0-1.47","training","ab","0.9","valid","20","a","win:stay","49","1"
"null","<img style='border: 5px solid #808080;' src='stim/a/Field3.bmp'><img style='width:100px; height:100px; padding-right: 75px; padding-left: 75px; margin-bottom: 50px;' src='stim/win.bmp'><img style='border: 5px solid #ffffff;  padding-left:15px;' src='stim/a/Field5.bmp'>","null","html-keyboard-response","189","148972","0.0-11.0-2.47","feedback","","","","","","","",""
"null","<img style='width:200px; height:200px; margin-left: 95px; margin-right: 95px;' src='stim/fixation.png'>","null","html-keyboard-response","190","149989","0.0-11.0-0.48","fixation","","","","","","","",""
"297.70000000001164","<img src='stim/a/Field12.bmp'><img style='width:200px; height:200px; margin-bottom: 0px;' src='stim/fixation.png'><img src='stim/a/Field9.bmp'>","49","html-keyboard-response","191","150290","0.0-11.0-1.48","training","ef","0.9","valid","20","e","avoid:lose","50","0"
"null","<img style='border: 5px solid #808080;' src='stim/a/Field12.bmp'><img style='width:100px; height:100px; padding-right: 75px; padding-left: 75px; margin-bottom: 50px;' src='stim/lose.bmp'><img style='border: 5px solid #ffffff;  padding-left:15px;' src='stim/a/Field9.bmp'>","null","html-keyboard-response","192","151307","0.0-11.0-2.48","feedback","","","","","","","",""
"null","<img style='width:200px; height:200px; margin-left: 95px; margin-right: 95px;' src='stim/fixation.png'>","null","html-keyboard-response","193","152309","0.0-11.0-0.49","fixation","","","","","","","",""
"369.79999999998836","<img src='stim/a/Field12.bmp'><img style='width:200px; height:200px; margin-bottom: 0px;' src='stim/fixation.png'><img src='stim/a/Field9.bmp'>","49","html-keyboard-response","194","152681","0.0-11.0-1.49","training","ef","0.9","valid","20","e","avoid:lose","50","0"
"null","<img style='border: 5px solid #808080;' src='stim/a/Field12.bmp'><img style='width:100px; height:100px; padding-right: 75px; padding-left: 75px; margin-bottom: 50px;' src='stim/lose.bmp'><img style='border: 5px solid #ffffff;  padding-left:15px;' src='stim/a/Field9.bmp'>","null","html-keyboard-response","195","153698","0.0-11.0-2.49","feedback","","","","","","","",""
"null","<img style='width:200px; height:200px; margin-left: 95px; margin-right: 95px;' src='stim/fixation.png'>","null","html-keyboard-response","196","154701","0.0-11.0-0.50","fixation","","","","","","","",""
"393.8999999999942","<img src='stim/a/Field15.bmp'><img style='width:200px; height:200px; margin-bottom: 0px;' src='stim/fixation.png'><img src='stim/a/Field16.bmp'>","49","html-keyboard-response","197","155097","0.0-11.0-1.50","training","gh","0.8","valid","20","g","avoid:lose","49","1"
"null","<img style='border: 5px solid #808080;' src='stim/a/Field15.bmp'><img style='width:100px; height:100px; padding-right: 75px; padding-left: 75px; margin-bottom: 50px;' src='stim/keep_money.png'><img style='border: 5px solid #ffffff;  padding-left:15px;' src='stim/a/Field16.bmp'>","null","html-keyboard-response","198","156115","0.0-11.0-2.50","feedback","","","","","","","",""
"null","<img style='width:200px; height:200px; margin-left: 95px; margin-right: 95px;' src='stim/fixation.png'>","null","html-keyboard-response","199","157132","0.0-11.0-0.51","fixation","","","","","","","",""
"322.6000000000058","<img src='stim/a/Field9.bmp'><img style='width:200px; height:200px; margin-bottom: 0px;' src='stim/fixation.png'><img src='stim/a/Field12.bmp'>","49","html-keyboard-response","200","157457","0.0-11.0-1.51","training","ef","0.9","invalid","20","e","avoid:lose","49","1"
"null","<img style='border: 5px solid #808080;' src='stim/a/Field9.bmp'><img style='width:100px; height:100px; padding-right: 75px; padding-left: 75px; margin-bottom: 50px;' src='stim/lose.bmp'><img style='border: 5px solid #ffffff;  padding-left:15px;' src='stim/a/Field12.bmp'>","null","html-keyboard-response","201","158475","0.0-11.0-2.51","feedback","","","","","","","",""
"null","<img style='width:200px; height:200px; margin-left: 95px; margin-right: 95px;' src='stim/fixation.png'>","null","html-keyboard-response","202","159488","0.0-11.0-0.52","fixation","","","","","","","",""
"367","<img src='stim/a/Field9.bmp'><img style='width:200px; height:200px; margin-bottom: 0px;' src='stim/fixation.png'><img src='stim/a/Field12.bmp'>","49","html-keyboard-response","203","159858","0.0-11.0-1.52","training","ef","0.9","valid","20","e","avoid:lose","49","1"
"null","<img style='border: 5px solid #808080;' src='stim/a/Field9.bmp'><img style='width:100px; height:100px; padding-right: 75px; padding-left: 75px; margin-bottom: 50px;' src='stim/keep_money.png'><img style='border: 5px solid #ffffff;  padding-left:15px;' src='stim/a/Field12.bmp'>","null","html-keyboard-response","204","160876","0.0-11.0-2.52","feedback","","","","","","","",""
"null","<img style='width:200px; height:200px; margin-left: 95px; margin-right: 95px;' src='stim/fixation.png'>","null","html-keyboard-response","205","161894","0.0-11.0-0.53","fixation","","","","","","","",""
"297.5","<img src='stim/a/Field12.bmp'><img style='width:200px; height:200px; margin-bottom: 0px;' src='stim/fixation.png'><img src='stim/a/Field9.bmp'>","49","html-keyboard-response","206","162194","0.0-11.0-1.53","training","ef","0.9","valid","20","e","avoid:lose","50","0"
"null","<img style='border: 5px solid #808080;' src='stim/a/Field12.bmp'><img style='width:100px; height:100px; padding-right: 75px; padding-left: 75px; margin-bottom: 50px;' src='stim/lose.bmp'><img style='border: 5px solid #ffffff;  padding-left:15px;' src='stim/a/Field9.bmp'>","null","html-keyboard-response","207","163211","0.0-11.0-2.53","feedback","","","","","","","",""
"null","<img style='width:200px; height:200px; margin-left: 95px; margin-right: 95px;' src='stim/fixation.png'>","null","html-keyboard-response","208","164213","0.0-11.0-0.54","fixation","","","","","","","",""
"329","<img src='stim/a/Field16.bmp'><img style='width:200px; height:200px; margin-bottom: 0px;' src='stim/fixation.png'><img src='stim/a/Field15.bmp'>","49","html-keyboard-response","209","164546","0.0-11.0-1.54","training","gh","0.8","valid","20","g","avoid:lose","50","0"
"null","<img style='border: 5px solid #808080;' src='stim/a/Field16.bmp'><img style='width:100px; height:100px; padding-right: 75px; padding-left: 75px; margin-bottom: 50px;' src='stim/lose.bmp'><img style='border: 5px solid #ffffff;  padding-left:15px;' src='stim/a/Field15.bmp'>","null","html-keyboard-response","210","165564","0.0-11.0-2.54","feedback","","","","","","","",""
"null","<img style='width:200px; height:200px; margin-left: 95px; margin-right: 95px;' src='stim/fixation.png'>","null","html-keyboard-response","211","166578","0.0-11.0-0.55","fixation","","","","","","","",""
"340.80000000001746","<img src='stim/a/Field15.bmp'><img style='width:200px; height:200px; margin-bottom: 0px;' src='stim/fixation.png'><img src='stim/a/Field16.bmp'>","49","html-keyboard-response","212","166922","0.0-11.0-1.55","training","gh","0.8","valid","20","g","avoid:lose","49","1"
"null","<img style='border: 5px solid #808080;' src='stim/a/Field15.bmp'><img style='width:100px; height:100px; padding-right: 75px; padding-left: 75px; margin-bottom: 50px;' src='stim/keep_money.png'><img style='border: 5px solid #ffffff;  padding-left:15px;' src='stim/a/Field16.bmp'>","null","html-keyboard-response","213","167938","0.0-11.0-2.55","feedback","","","","","","","",""
"null","<img style='width:200px; height:200px; margin-left: 95px; margin-right: 95px;' src='stim/fixation.png'>","null","html-keyboard-response","214","168941","0.0-11.0-0.56","fixation","","","","","","","",""
"377.5","<img src='stim/a/Field9.bmp'><img style='width:200px; height:200px; margin-bottom: 0px;' src='stim/fixation.png'><img src='stim/a/Field12.bmp'>","49","html-keyboard-response","215","169322","0.0-11.0-1.56","training","ef","0.9","valid","20","e","avoid:lose","49","1"
"null","<img style='border: 5px solid #808080;' src='stim/a/Field9.bmp'><img style='width:100px; height:100px; padding-right: 75px; padding-left: 75px; margin-bottom: 50px;' src='stim/keep_money.png'><img style='border: 5px solid #ffffff;  padding-left:15px;' src='stim/a/Field12.bmp'>","null","html-keyboard-response","216","170341","0.0-11.0-2.56","feedback","","","","","","","",""
"null","<img style='width:200px; height:200px; margin-left: 95px; margin-right: 95px;' src='stim/fixation.png'>","null","html-keyboard-response","217","171358","0.0-11.0-0.57","fixation","","","","","","","",""
"297.0999999999767","<img src='stim/a/Field11.bmp'><img style='width:200px; height:200px; margin-bottom: 0px;' src='stim/fixation.png'><img src='stim/a/Field14.bmp'>","49","html-keyboard-response","218","171657","0.0-11.0-1.57","training","cd","0.8","valid","20","c","win:stay","50","0"
"null","<img style='border: 5px solid #808080;' src='stim/a/Field11.bmp'><img style='width:100px; height:100px; padding-right: 75px; padding-left: 75px; margin-bottom: 50px;' src='stim/not_winner.png'><img style='border: 5px solid #ffffff;  padding-left:15px;' src='stim/a/Field14.bmp'>","null","html-keyboard-response","219","172676","0.0-11.0-2.57","feedback","","","","","","","",""
"null","<img style='width:200px; height:200px; margin-left: 95px; margin-right: 95px;' src='stim/fixation.png'>","null","html-keyboard-response","220","173690","0.0-11.0-0.58","fixation","","","","","","","",""
"332.30000000001746","<img src='stim/a/Field5.bmp'><img style='width:200px; height:200px; margin-bottom: 0px;' src='stim/fixation.png'><img src='stim/a/Field3.bmp'>","49","html-keyboard-response","221","174026","0.0-11.0-1.58","training","ab","0.9","valid","20","a","win:stay","50","0"
"null","<img style='border: 5px solid #808080;' src='stim/a/Field5.bmp'><img style='width:100px; height:100px; padding-right: 75px; padding-left: 75px; margin-bottom: 50px;' src='stim/not_winner.png'><img style='border: 5px solid #ffffff;  padding-left:15px;' src='stim/a/Field3.bmp'>","null","html-keyboard-response","222","175044","0.0-11.0-2.58","feedback","","","","","","","",""
"null","<img style='width:200px; height:200px; margin-left: 95px; margin-right: 95px;' src='stim/fixation.png'>","null","html-keyboard-response","223","176059","0.0-11.0-0.59","fixation","","","","","","","",""
"381.3999999999942","<img src='stim/a/Field5.bmp'><img style='width:200px; height:200px; margin-bottom: 0px;' src='stim/fixation.png'><img src='stim/a/Field3.bmp'>","49","html-keyboard-response","224","176443","0.0-11.0-1.59","training","ab","0.9","valid","20","a","win:stay","50","0"
"null","<img style='border: 5px solid #808080;' src='stim/a/Field5.bmp'><img style='width:100px; height:100px; padding-right: 75px; padding-left: 75px; margin-bottom: 50px;' src='stim/not_winner.png'><img style='border: 5px solid #ffffff;  padding-left:15px;' src='stim/a/Field3.bmp'>","null","html-keyboard-response","225","177462","0.0-11.0-2.59","feedback","","","","","","","",""
"null","<img style='width:200px; height:200px; margin-left: 95px; margin-right: 95px;' src='stim/fixation.png'>","null","html-keyboard-response","226","178478","0.0-11.0-0.60","fixation","","","","","","","",""
"336.8999999999942","<img src='stim/a/Field16.bmp'><img style='width:200px; height:200px; margin-bottom: 0px;' src='stim/fixation.png'><img src='stim/a/Field15.bmp'>","49","html-keyboard-response","227","178817","0.0-11.0-1.60","training","gh","0.8","invalid","20","g","avoid:lose","50","0"
"null","<img style='border: 5px solid #808080;' src='stim/a/Field16.bmp'><img style='width:100px; height:100px; padding-right: 75px; padding-left: 75px; margin-bottom: 50px;' src='stim/keep_money.png'><img style='border: 5px solid #ffffff;  padding-left:15px;' src='stim/a/Field15.bmp'>","null","html-keyboard-response","228","179834","0.0-11.0-2.60","feedback","","","","","","","",""
"null","<img style='width:200px; height:200px; margin-left: 95px; margin-right: 95px;' src='stim/fixation.png'>","null","html-keyboard-response","229","180850","0.0-11.0-0.61","fixation","","","","","","","",""
"379.6000000000058","<img src='stim/a/Field16.bmp'><img style='width:200px; height:200px; margin-bottom: 0px;' src='stim/fixation.png'><img src='stim/a/Field15.bmp'>","49","html-keyboard-response","230","181233","0.0-11.0-1.61","training","gh","0.8","valid","20","g","avoid:lose","50","0"
"null","<img style='border: 5px solid #808080;' src='stim/a/Field16.bmp'><img style='width:100px; height:100px; padding-right: 75px; padding-left: 75px; margin-bottom: 50px;' src='stim/lose.bmp'><img style='border: 5px solid #ffffff;  padding-left:15px;' src='stim/a/Field15.bmp'>","null","html-keyboard-response","231","182253","0.0-11.0-2.61","feedback","","","","","","","",""
"null","<img style='width:200px; height:200px; margin-left: 95px; margin-right: 95px;' src='stim/fixation.png'>","null","html-keyboard-response","232","183255","0.0-11.0-0.62","fixation","","","","","","","",""
"415.3999999999942","<img src='stim/a/Field12.bmp'><img style='width:200px; height:200px; margin-bottom: 0px;' src='stim/fixation.png'><img src='stim/a/Field9.bmp'>","49","html-keyboard-response","233","183674","0.0-11.0-1.62","training","ef","0.9","valid","20","e","avoid:lose","50","0"
"null","<img style='border: 5px solid #808080;' src='stim/a/Field12.bmp'><img style='width:100px; height:100px; padding-right: 75px; padding-left: 75px; margin-bottom: 50px;' src='stim/lose.bmp'><img style='border: 5px solid #ffffff;  padding-left:15px;' src='stim/a/Field9.bmp'>","null","html-keyboard-response","234","184692","0.0-11.0-2.62","feedback","","","","","","","",""
"null","<img style='width:200px; height:200px; margin-left: 95px; margin-right: 95px;' src='stim/fixation.png'>","null","html-keyboard-response","235","185696","0.0-11.0-0.63","fixation","","","","","","","",""
"326.69999999998253","<img src='stim/a/Field14.bmp'><img style='width:200px; height:200px; margin-bottom: 0px;' src='stim/fixation.png'><img src='stim/a/Field11.bmp'>","49","html-keyboard-response","236","186025","0.0-11.0-1.63","training","cd","0.8","valid","20","c","win:stay","49","1"
"null","<img style='border: 5px solid #808080;' src='stim/a/Field14.bmp'><img style='width:100px; height:100px; padding-right: 75px; padding-left: 75px; margin-bottom: 50px;' src='stim/win.bmp'><img style='border: 5px solid #ffffff;  padding-left:15px;' src='stim/a/Field11.bmp'>","null","html-keyboard-response","237","187045","0.0-11.0-2.63","feedback","","","","","","","",""
"null","<img style='width:200px; height:200px; margin-left: 95px; margin-right: 95px;' src='stim/fixation.png'>","null","html-keyboard-response","238","188058","0.0-11.0-0.64","fixation","","","","","","","",""
"332.5","<img src='stim/a/Field14.bmp'><img style='width:200px; height:200px; margin-bottom: 0px;' src='stim/fixation.png'><img src='stim/a/Field11.bmp'>","49","html-keyboard-response","239","188394","0.0-11.0-1.64","training","cd","0.8","valid","20","c","win:stay","49","1"
"null","<img style='border: 5px solid #808080;' src='stim/a/Field14.bmp'><img style='width:100px; height:100px; padding-right: 75px; padding-left: 75px; margin-bottom: 50px;' src='stim/win.bmp'><img style='border: 5px solid #ffffff;  padding-left:15px;' src='stim/a/Field11.bmp'>","null","html-keyboard-response","240","189413","0.0-11.0-2.64","feedback","","","","","","","",""
"null","<img style='width:200px; height:200px; margin-left: 95px; margin-right: 95px;' src='stim/fixation.png'>","null","html-keyboard-response","241","190426","0.0-11.0-0.65","fixation","","","","","","","",""
"459.8999999999942","<img src='stim/a/Field11.bmp'><img style='width:200px; height:200px; margin-bottom: 0px;' src='stim/fixation.png'><img src='stim/a/Field14.bmp'>","49","html-keyboard-response","242","190889","0.0-11.0-1.65","training","cd","0.8","valid","20","c","win:stay","50","0"
"null","<img style='border: 5px solid #808080;' src='stim/a/Field11.bmp'><img style='width:100px; height:100px; padding-right: 75px; padding-left: 75px; margin-bottom: 50px;' src='stim/not_winner.png'><img style='border: 5px solid #ffffff;  padding-left:15px;' src='stim/a/Field14.bmp'>","null","html-keyboard-response","243","191895","0.0-11.0-2.65","feedback","","","","","","","",""
"null","<img style='width:200px; height:200px; margin-left: 95px; margin-right: 95px;' src='stim/fixation.png'>","null","html-keyboard-response","244","192911","0.0-11.0-0.66","fixation","","","","","","","",""
"335","<img src='stim/a/Field5.bmp'><img style='width:200px; height:200px; margin-bottom: 0px;' src='stim/fixation.png'><img src='stim/a/Field3.bmp'>","49","html-keyboard-response","245","193250","0.0-11.0-1.66","training","ab","0.9","valid","20","a","win:stay","50","0"
"null","<img style='border: 5px solid #808080;' src='stim/a/Field5.bmp'><img style='width:100px; height:100px; padding-right: 75px; padding-left: 75px; margin-bottom: 50px;' src='stim/not_winner.png'><img style='border: 5px solid #ffffff;  padding-left:15px;' src='stim/a/Field3.bmp'>","null","html-keyboard-response","246","194267","0.0-11.0-2.66","feedback","","","","","","","",""
"null","<img style='width:200px; height:200px; margin-left: 95px; margin-right: 95px;' src='stim/fixation.png'>","null","html-keyboard-response","247","195285","0.0-11.0-0.67","fixation","","","","","","","",""
"314","<img src='stim/a/Field3.bmp'><img style='width:200px; height:200px; margin-bottom: 0px;' src='stim/fixation.png'><img src='stim/a/Field5.bmp'>","49","html-keyboard-response","248","195601","0.0-11.0-1.67","training","ab","0.9","valid","20","a","win:stay","49","1"
"null","<img style='border: 5px solid #808080;' src='stim/a/Field3.bmp'><img style='width:100px; height:100px; padding-right: 75px; padding-left: 75px; margin-bottom: 50px;' src='stim/win.bmp'><img style='border: 5px solid #ffffff;  padding-left:15px;' src='stim/a/Field5.bmp'>","null","html-keyboard-response","249","196618","0.0-11.0-2.67","feedback","","","","","","","",""
"null","<img style='width:200px; height:200px; margin-left: 95px; margin-right: 95px;' src='stim/fixation.png'>","null","html-keyboard-response","250","197633","0.0-11.0-0.68","fixation","","","","","","","",""
"285.29999999998836","<img src='stim/a/Field14.bmp'><img style='width:200px; height:200px; margin-bottom: 0px;' src='stim/fixation.png'><img src='stim/a/Field11.bmp'>","49","html-keyboard-response","251","197921","0.0-11.0-1.68","training","cd","0.8","invalid","20","c","win:stay","49","1"
"null","<img style='border: 5px solid #808080;' src='stim/a/Field14.bmp'><img style='width:100px; height:100px; padding-right: 75px; padding-left: 75px; margin-bottom: 50px;' src='stim/not_winner.png'><img style='border: 5px solid #ffffff;  padding-left:15px;' src='stim/a/Field11.bmp'>","null","html-keyboard-response","252","198939","0.0-11.0-2.68","feedback","","","","","","","",""
"null","<img style='width:200px; height:200px; margin-left: 95px; margin-right: 95px;' src='stim/fixation.png'>","null","html-keyboard-response","253","199953","0.0-11.0-0.69","fixation","","","","","","","",""
"301","<img src='stim/a/Field14.bmp'><img style='width:200px; height:200px; margin-bottom: 0px;' src='stim/fixation.png'><img src='stim/a/Field11.bmp'>","49","html-keyboard-response","254","200258","0.0-11.0-1.69","training","cd","0.8","valid","20","c","win:stay","49","1"
"null","<img style='border: 5px solid #808080;' src='stim/a/Field14.bmp'><img style='width:100px; height:100px; padding-right: 75px; padding-left: 75px; margin-bottom: 50px;' src='stim/win.bmp'><img style='border: 5px solid #ffffff;  padding-left:15px;' src='stim/a/Field11.bmp'>","null","html-keyboard-response","255","201276","0.0-11.0-2.69","feedback","","","","","","","",""
"null","<img style='width:200px; height:200px; margin-left: 95px; margin-right: 95px;' src='stim/fixation.png'>","null","html-keyboard-response","256","202279","0.0-11.0-0.70","fixation","","","","","","","",""
"367.5","<img src='stim/a/Field11.bmp'><img style='width:200px; height:200px; margin-bottom: 0px;' src='stim/fixation.png'><img src='stim/a/Field14.bmp'>","49","html-keyboard-response","257","202649","0.0-11.0-1.70","training","cd","0.8","valid","20","c","win:stay","50","0"
"null","<img style='border: 5px solid #808080;' src='stim/a/Field11.bmp'><img style='width:100px; height:100px; padding-right: 75px; padding-left: 75px; margin-bottom: 50px;' src='stim/not_winner.png'><img style='border: 5px solid #ffffff;  padding-left:15px;' src='stim/a/Field14.bmp'>","null","html-keyboard-response","258","203666","0.0-11.0-2.70","feedback","","","","","","","",""
"null","<img style='width:200px; height:200px; margin-left: 95px; margin-right: 95px;' src='stim/fixation.png'>","null","html-keyboard-response","259","204682","0.0-11.0-0.71","fixation","","","","","","","",""
"300.5","<img src='stim/a/Field16.bmp'><img style='width:200px; height:200px; margin-bottom: 0px;' src='stim/fixation.png'><img src='stim/a/Field15.bmp'>","49","html-keyboard-response","260","204985","0.0-11.0-1.71","training","gh","0.8","invalid","20","g","avoid:lose","50","0"
"null","<img style='border: 5px solid #808080;' src='stim/a/Field16.bmp'><img style='width:100px; height:100px; padding-right: 75px; padding-left: 75px; margin-bottom: 50px;' src='stim/keep_money.png'><img style='border: 5px solid #ffffff;  padding-left:15px;' src='stim/a/Field15.bmp'>","null","html-keyboard-response","261","206002","0.0-11.0-2.71","feedback","","","","","","","",""
"null","<img style='width:200px; height:200px; margin-left: 95px; margin-right: 95px;' src='stim/fixation.png'>","null","html-keyboard-response","262","207019","0.0-11.0-0.72","fixation","","","","","","","",""
"258.79999999998836","<img src='stim/a/Field11.bmp'><img style='width:200px; height:200px; margin-bottom: 0px;' src='stim/fixation.png'><img src='stim/a/Field14.bmp'>","49","html-keyboard-response","263","207281","0.0-11.0-1.72","training","cd","0.8","valid","20","c","win:stay","50","0"
"null","<img style='border: 5px solid #808080;' src='stim/a/Field11.bmp'><img style='width:100px; height:100px; padding-right: 75px; padding-left: 75px; margin-bottom: 50px;' src='stim/not_winner.png'><img style='border: 5px solid #ffffff;  padding-left:15px;' src='stim/a/Field14.bmp'>","null","html-keyboard-response","264","208298","0.0-11.0-2.72","feedback","","","","","","","",""
"null","<img style='width:200px; height:200px; margin-left: 95px; margin-right: 95px;' src='stim/fixation.png'>","null","html-keyboard-response","265","209312","0.0-11.0-0.73","fixation","","","","","","","",""
"342.20000000001164","<img src='stim/a/Field3.bmp'><img style='width:200px; height:200px; margin-bottom: 0px;' src='stim/fixation.png'><img src='stim/a/Field5.bmp'>","49","html-keyboard-response","266","209658","0.0-11.0-1.73","training","ab","0.9","valid","20","a","win:stay","49","1"
"null","<img style='border: 5px solid #808080;' src='stim/a/Field3.bmp'><img style='width:100px; height:100px; padding-right: 75px; padding-left: 75px; margin-bottom: 50px;' src='stim/win.bmp'><img style='border: 5px solid #ffffff;  padding-left:15px;' src='stim/a/Field5.bmp'>","null","html-keyboard-response","267","210676","0.0-11.0-2.73","feedback","","","","","","","",""
"null","<img style='width:200px; height:200px; margin-left: 95px; margin-right: 95px;' src='stim/fixation.png'>","null","html-keyboard-response","268","211679","0.0-11.0-0.74","fixation","","","","","","","",""
"327.29999999998836","<img src='stim/a/Field12.bmp'><img style='width:200px; height:200px; margin-bottom: 0px;' src='stim/fixation.png'><img src='stim/a/Field9.bmp'>","49","html-keyboard-response","269","212009","0.0-11.0-1.74","training","ef","0.9","invalid","20","e","avoid:lose","50","0"
"null","<img style='border: 5px solid #808080;' src='stim/a/Field12.bmp'><img style='width:100px; height:100px; padding-right: 75px; padding-left: 75px; margin-bottom: 50px;' src='stim/keep_money.png'><img style='border: 5px solid #ffffff;  padding-left:15px;' src='stim/a/Field9.bmp'>","null","html-keyboard-response","270","213028","0.0-11.0-2.74","feedback","","","","","","","",""
"null","<img style='width:200px; height:200px; margin-left: 95px; margin-right: 95px;' src='stim/fixation.png'>","null","html-keyboard-response","271","214044","0.0-11.0-0.75","fixation","","","","","","","",""
"314.8999999999942","<img src='stim/a/Field15.bmp'><img style='width:200px; height:200px; margin-bottom: 0px;' src='stim/fixation.png'><img src='stim/a/Field16.bmp'>","49","html-keyboard-response","272","214361","0.0-11.0-1.75","training","gh","0.8","valid","20","g","avoid:lose","49","1"
"null","<img style='border: 5px solid #808080;' src='stim/a/Field15.bmp'><img style='width:100px; height:100px; padding-right: 75px; padding-left: 75px; margin-bottom: 50px;' src='stim/keep_money.png'><img style='border: 5px solid #ffffff;  padding-left:15px;' src='stim/a/Field16.bmp'>","null","html-keyboard-response","273","215379","0.0-11.0-2.75","feedback","","","","","","","",""
"null","<img style='width:200px; height:200px; margin-left: 95px; margin-right: 95px;' src='stim/fixation.png'>","null","html-keyboard-response","274","216382","0.0-11.0-0.76","fixation","","","","","","","",""
"320.30000000001746","<img src='stim/a/Field16.bmp'><img style='width:200px; height:200px; margin-bottom: 0px;' src='stim/fixation.png'><img src='stim/a/Field15.bmp'>","49","html-keyboard-response","275","216706","0.0-11.0-1.76","training","gh","0.8","valid","20","g","avoid:lose","50","0"
"null","<img style='border: 5px solid #808080;' src='stim/a/Field16.bmp'><img style='width:100px; height:100px; padding-right: 75px; padding-left: 75px; margin-bottom: 50px;' src='stim/lose.bmp'><img style='border: 5px solid #ffffff;  padding-left:15px;' src='stim/a/Field15.bmp'>","null","html-keyboard-response","276","217724","0.0-11.0-2.76","feedback","","","","","","","",""
"null","<img style='width:200px; height:200px; margin-left: 95px; margin-right: 95px;' src='stim/fixation.png'>","null","html-keyboard-response","277","218726","0.0-11.0-0.77","fixation","","","","","","","",""
"296.0999999999767","<img src='stim/a/Field15.bmp'><img style='width:200px; height:200px; margin-bottom: 0px;' src='stim/fixation.png'><img src='stim/a/Field16.bmp'>","49","html-keyboard-response","278","219026","0.0-11.0-1.77","training","gh","0.8","valid","20","g","avoid:lose","49","1"
"null","<img style='border: 5px solid #808080;' src='stim/a/Field15.bmp'><img style='width:100px; height:100px; padding-right: 75px; padding-left: 75px; margin-bottom: 50px;' src='stim/keep_money.png'><img style='border: 5px solid #ffffff;  padding-left:15px;' src='stim/a/Field16.bmp'>","null","html-keyboard-response","279","220042","0.0-11.0-2.77","feedback","","","","","","","",""
"null","<img style='width:200px; height:200px; margin-left: 95px; margin-right: 95px;' src='stim/fixation.png'>","null","html-keyboard-response","280","221046","0.0-11.0-0.78","fixation","","","","","","","",""
"288.3999999999942","<img src='stim/a/Field9.bmp'><img style='width:200px; height:200px; margin-bottom: 0px;' src='stim/fixation.png'><img src='stim/a/Field12.bmp'>","49","html-keyboard-response","281","221338","0.0-11.0-1.78","training","ef","0.9","valid","20","e","avoid:lose","49","1"
"null","<img style='border: 5px solid #808080;' src='stim/a/Field9.bmp'><img style='width:100px; height:100px; padding-right: 75px; padding-left: 75px; margin-bottom: 50px;' src='stim/keep_money.png'><img style='border: 5px solid #ffffff;  padding-left:15px;' src='stim/a/Field12.bmp'>","null","html-keyboard-response","282","222355","0.0-11.0-2.78","feedback","","","","","","","",""
"null","<img style='width:200px; height:200px; margin-left: 95px; margin-right: 95px;' src='stim/fixation.png'>","null","html-keyboard-response","283","223370","0.0-11.0-0.79","fixation","","","","","","","",""
"292","<img src='stim/a/Field16.bmp'><img style='width:200px; height:200px; margin-bottom: 0px;' src='stim/fixation.png'><img src='stim/a/Field15.bmp'>","49","html-keyboard-response","284","223665","0.0-11.0-1.79","training","gh","0.8","valid","20","g","avoid:lose","50","0"
"null","<img style='border: 5px solid #808080;' src='stim/a/Field16.bmp'><img style='width:100px; height:100px; padding-right: 75px; padding-left: 75px; margin-bottom: 50px;' src='stim/lose.bmp'><img style='border: 5px solid #ffffff;  padding-left:15px;' src='stim/a/Field15.bmp'>","null","html-keyboard-response","285","224684","0.0-11.0-2.79","feedback","","","","","","","",""
"1158.6999999999825","<p>Starting a new block of trials.</p> <p>Press either button when you are ready to begin.</p>","49","html-keyboard-response","286","226362","0.0-12.0","","","","","","","","",""
"null","<img style='width:200px; height:200px; margin-left: 95px; margin-right: 95px;' src='stim/fixation.png'>","null","html-keyboard-response","287","226874","0.0-13.0-0.0","fixation","","","","","","","",""
"299.5","<img src='stim/a/Field11.bmp'><img style='width:200px; height:200px; margin-bottom: 0px;' src='stim/fixation.png'><img src='stim/a/Field14.bmp'>","49","html-keyboard-response","288","227177","0.0-13.0-1.0","training","cd","0.8","invalid","20","c","win:stay","50","0"
"null","<img style='border: 5px solid #808080;' src='stim/a/Field11.bmp'><img style='width:100px; height:100px; padding-right: 75px; padding-left: 75px; margin-bottom: 50px;' src='stim/win.bmp'><img style='border: 5px solid #ffffff;  padding-left:15px;' src='stim/a/Field14.bmp'>","null","html-keyboard-response","289","228195","0.0-13.0-2.0","feedback","","","","","","","",""
"null","<img style='width:200px; height:200px; margin-left: 95px; margin-right: 95px;' src='stim/fixation.png'>","null","html-keyboard-response","290","229211","0.0-13.0-0.1","fixation","","","","","","","",""
"452.6000000000058","<img src='stim/a/Field9.bmp'><img style='width:200px; height:200px; margin-bottom: 0px;' src='stim/fixation.png'><img src='stim/a/Field12.bmp'>","49","html-keyboard-response","291","229666","0.0-13.0-1.1","training","ef","0.9","valid","20","e","avoid:lose","49","1"
"null","<img style='border: 5px solid #808080;' src='stim/a/Field9.bmp'><img style='width:100px; height:100px; padding-right: 75px; padding-left: 75px; margin-bottom: 50px;' src='stim/keep_money.png'><img style='border: 5px solid #ffffff;  padding-left:15px;' src='stim/a/Field12.bmp'>","null","html-keyboard-response","292","230686","0.0-13.0-2.1","feedback","","","","","","","",""
"null","<img style='width:200px; height:200px; margin-left: 95px; margin-right: 95px;' src='stim/fixation.png'>","null","html-keyboard-response","293","231701","0.0-13.0-0.2","fixation","","","","","","","",""
"353.29999999998836","<img src='stim/a/Field12.bmp'><img style='width:200px; height:200px; margin-bottom: 0px;' src='stim/fixation.png'><img src='stim/a/Field9.bmp'>","49","html-keyboard-response","294","232057","0.0-13.0-1.2","training","ef","0.9","valid","20","e","avoid:lose","50","0"
"null","<img style='border: 5px solid #808080;' src='stim/a/Field12.bmp'><img style='width:100px; height:100px; padding-right: 75px; padding-left: 75px; margin-bottom: 50px;' src='stim/lose.bmp'><img style='border: 5px solid #ffffff;  padding-left:15px;' src='stim/a/Field9.bmp'>","null","html-keyboard-response","295","233075","0.0-13.0-2.2","feedback","","","","","","","",""
"null","<img style='width:200px; height:200px; margin-left: 95px; margin-right: 95px;' src='stim/fixation.png'>","null","html-keyboard-response","296","234091","0.0-13.0-0.3","fixation","","","","","","","",""
"307.6000000000058","<img src='stim/a/Field3.bmp'><img style='width:200px; height:200px; margin-bottom: 0px;' src='stim/fixation.png'><img src='stim/a/Field5.bmp'>","49","html-keyboard-response","297","234402","0.0-13.0-1.3","training","ab","0.9","valid","20","a","win:stay","49","1"
"null","<img style='border: 5px solid #808080;' src='stim/a/Field3.bmp'><img style='width:100px; height:100px; padding-right: 75px; padding-left: 75px; margin-bottom: 50px;' src='stim/win.bmp'><img style='border: 5px solid #ffffff;  padding-left:15px;' src='stim/a/Field5.bmp'>","null","html-keyboard-response","298","235419","0.0-13.0-2.3","feedback","","","","","","","",""
"null","<img style='width:200px; height:200px; margin-left: 95px; margin-right: 95px;' src='stim/fixation.png'>","null","html-keyboard-response","299","236434","0.0-13.0-0.4","fixation","","","","","","","",""
"308.3999999999942","<img src='stim/a/Field15.bmp'><img style='width:200px; height:200px; margin-bottom: 0px;' src='stim/fixation.png'><img src='stim/a/Field16.bmp'>","49","html-keyboard-response","300","236746","0.0-13.0-1.4","training","gh","0.8","valid","20","g","avoid:lose","49","1"
"null","<img style='border: 5px solid #808080;' src='stim/a/Field15.bmp'><img style='width:100px; height:100px; padding-right: 75px; padding-left: 75px; margin-bottom: 50px;' src='stim/keep_money.png'><img style='border: 5px solid #ffffff;  padding-left:15px;' src='stim/a/Field16.bmp'>","null","html-keyboard-response","301","237762","0.0-13.0-2.4","feedback","","","","","","","",""
"null","<img style='width:200px; height:200px; margin-left: 95px; margin-right: 95px;' src='stim/fixation.png'>","null","html-keyboard-response","302","238777","0.0-13.0-0.5","fixation","","","","","","","",""
"309.30000000001746","<img src='stim/a/Field3.bmp'><img style='width:200px; height:200px; margin-bottom: 0px;' src='stim/fixation.png'><img src='stim/a/Field5.bmp'>","49","html-keyboard-response","303","239090","0.0-13.0-1.5","training","ab","0.9","valid","20","a","win:stay","49","1"
"null","<img style='border: 5px solid #808080;' src='stim/a/Field3.bmp'><img style='width:100px; height:100px; padding-right: 75px; padding-left: 75px; margin-bottom: 50px;' src='stim/win.bmp'><img style='border: 5px solid #ffffff;  padding-left:15px;' src='stim/a/Field5.bmp'>","null","html-keyboard-response","304","240106","0.0-13.0-2.5","feedback","","","","","","","",""
"null","<img style='width:200px; height:200px; margin-left: 95px; margin-right: 95px;' src='stim/fixation.png'>","null","html-keyboard-response","305","241123","0.0-13.0-0.6","fixation","","","","","","","",""
"339.20000000001164","<img src='stim/a/Field16.bmp'><img style='width:200px; height:200px; margin-bottom: 0px;' src='stim/fixation.png'><img src='stim/a/Field15.bmp'>","49","html-keyboard-response","306","241466","0.0-13.0-1.6","training","gh","0.8","valid","20","g","avoid:lose","50","0"
"null","<img style='border: 5px solid #808080;' src='stim/a/Field16.bmp'><img style='width:100px; height:100px; padding-right: 75px; padding-left: 75px; margin-bottom: 50px;' src='stim/lose.bmp'><img style='border: 5px solid #ffffff;  padding-left:15px;' src='stim/a/Field15.bmp'>","null","html-keyboard-response","307","242483","0.0-13.0-2.6","feedback","","","","","","","",""
"null","<img style='width:200px; height:200px; margin-left: 95px; margin-right: 95px;' src='stim/fixation.png'>","null","html-keyboard-response","308","243499","0.0-13.0-0.7","fixation","","","","","","","",""
"171.60000000000582","<img src='stim/a/Field16.bmp'><img style='width:200px; height:200px; margin-bottom: 0px;' src='stim/fixation.png'><img src='stim/a/Field15.bmp'>","49","html-keyboard-response","309","243673","0.0-13.0-1.7","training","gh","0.8","valid","20","g","avoid:lose","50","0"
"null","<img style='border: 5px solid #808080;' src='stim/a/Field16.bmp'><img style='width:100px; height:100px; padding-right: 75px; padding-left: 75px; margin-bottom: 50px;' src='stim/lose.bmp'><img style='border: 5px solid #ffffff;  padding-left:15px;' src='stim/a/Field15.bmp'>","null","html-keyboard-response","310","244692","0.0-13.0-2.7","feedback","","","","","","","",""
"null","<img style='width:200px; height:200px; margin-left: 95px; margin-right: 95px;' src='stim/fixation.png'>","null","html-keyboard-response","311","245716","0.0-13.0-0.8","fixation","","","","","","","",""
"410.3999999999942","<img src='stim/a/Field15.bmp'><img style='width:200px; height:200px; margin-bottom: 0px;' src='stim/fixation.png'><img src='stim/a/Field16.bmp'>","49","html-keyboard-response","312","246130","0.0-13.0-1.8","training","gh","0.8","invalid","20","g","avoid:lose","49","1"
"null","<img style='border: 5px solid #808080;' src='stim/a/Field15.bmp'><img style='width:100px; height:100px; padding-right: 75px; padding-left: 75px; margin-bottom: 50px;' src='stim/lose.bmp'><img style='border: 5px solid #ffffff;  padding-left:15px;' src='stim/a/Field16.bmp'>","null","html-keyboard-response","313","247149","0.0-13.0-2.8","feedback","","","","","","","",""
"null","<img style='width:200px; height:200px; margin-left: 95px; margin-right: 95px;' src='stim/fixation.png'>","null","html-keyboard-response","314","248165","0.0-13.0-0.9","fixation","","","","","","","",""
"306.69999999998253","<img src='stim/a/Field14.bmp'><img style='width:200px; height:200px; margin-bottom: 0px;' src='stim/fixation.png'><img src='stim/a/Field11.bmp'>","49","html-keyboard-response","315","248474","0.0-13.0-1.9","training","cd","0.8","valid","20","c","win:stay","49","1"
"null","<img style='border: 5px solid #808080;' src='stim/a/Field14.bmp'><img style='width:100px; height:100px; padding-right: 75px; padding-left: 75px; margin-bottom: 50px;' src='stim/win.bmp'><img style='border: 5px solid #ffffff;  padding-left:15px;' src='stim/a/Field11.bmp'>","null","html-keyboard-response","316","249490","0.0-13.0-2.9","feedback","","","","","","","",""
"null","<img style='width:200px; height:200px; margin-left: 95px; margin-right: 95px;' src='stim/fixation.png'>","null","html-keyboard-response","317","250506","0.0-13.0-0.10","fixation","","","","","","","",""
"284.20000000001164","<img src='stim/a/Field16.bmp'><img style='width:200px; height:200px; margin-bottom: 0px;' src='stim/fixation.png'><img src='stim/a/Field15.bmp'>","49","html-keyboard-response","318","250793","0.0-13.0-1.10","training","gh","0.8","valid","20","g","avoid:lose","50","0"
"null","<img style='border: 5px solid #808080;' src='stim/a/Field16.bmp'><img style='width:100px; height:100px; padding-right: 75px; padding-left: 75px; margin-bottom: 50px;' src='stim/lose.bmp'><img style='border: 5px solid #ffffff;  padding-left:15px;' src='stim/a/Field15.bmp'>","null","html-keyboard-response","319","251812","0.0-13.0-2.10","feedback","","","","","","","",""
"null","<img style='width:200px; height:200px; margin-left: 95px; margin-right: 95px;' src='stim/fixation.png'>","null","html-keyboard-response","320","252827","0.0-13.0-0.11","fixation","","","","","","","",""
"315.80000000001746","<img src='stim/a/Field11.bmp'><img style='width:200px; height:200px; margin-bottom: 0px;' src='stim/fixation.png'><img src='stim/a/Field14.bmp'>","49","html-keyboard-response","321","253146","0.0-13.0-1.11","training","cd","0.8","valid","20","c","win:stay","50","0"
"null","<img style='border: 5px solid #808080;' src='stim/a/Field11.bmp'><img style='width:100px; height:100px; padding-right: 75px; padding-left: 75px; margin-bottom: 50px;' src='stim/not_winner.png'><img style='border: 5px solid #ffffff;  padding-left:15px;' src='stim/a/Field14.bmp'>","null","html-keyboard-response","322","254163","0.0-13.0-2.11","feedback","","","","","","","",""
"null","<img style='width:200px; height:200px; margin-left: 95px; margin-right: 95px;' src='stim/fixation.png'>","null","html-keyboard-response","323","255176","0.0-13.0-0.12","fixation","","","","","","","",""
"390.1000000000058","<img src='stim/a/Field9.bmp'><img style='width:200px; height:200px; margin-bottom: 0px;' src='stim/fixation.png'><img src='stim/a/Field12.bmp'>","49","html-keyboard-response","324","255569","0.0-13.0-1.12","training","ef","0.9","invalid","20","e","avoid:lose","49","1"
"null","<img style='border: 5px solid #808080;' src='stim/a/Field9.bmp'><img style='width:100px; height:100px; padding-right: 75px; padding-left: 75px; margin-bottom: 50px;' src='stim/lose.bmp'><img style='border: 5px solid #ffffff;  padding-left:15px;' src='stim/a/Field12.bmp'>","null","html-keyboard-response","325","256587","0.0-13.0-2.12","feedback","","","","","","","",""
"null","<img style='width:200px; height:200px; margin-left: 95px; margin-right: 95px;' src='stim/fixation.png'>","null","html-keyboard-response","326","257602","0.0-13.0-0.13","fixation","","","","","","","",""
"316.20000000001164","<img src='stim/a/Field15.bmp'><img style='width:200px; height:200px; margin-bottom: 0px;' src='stim/fixation.png'><img src='stim/a/Field16.bmp'>","49","html-keyboard-response","327","257921","0.0-13.0-1.13","training","gh","0.8","valid","20","g","avoid:lose","49","1"
"null","<img style='border: 5px solid #808080;' src='stim/a/Field15.bmp'><img style='width:100px; height:100px; padding-right: 75px; padding-left: 75px; margin-bottom: 50px;' src='stim/keep_money.png'><img style='border: 5px solid #ffffff;  padding-left:15px;' src='stim/a/Field16.bmp'>","null","html-keyboard-response","328","258939","0.0-13.0-2.13","feedback","","","","","","","",""
"null","<img style='width:200px; height:200px; margin-left: 95px; margin-right: 95px;' src='stim/fixation.png'>","null","html-keyboard-response","329","259955","0.0-13.0-0.14","fixation","","","","","","","",""
"291.8999999999651","<img src='stim/a/Field14.bmp'><img style='width:200px; height:200px; margin-bottom: 0px;' src='stim/fixation.png'><img src='stim/a/Field11.bmp'>","49","html-keyboard-response","330","260250","0.0-13.0-1.14","training","cd","0.8","valid","20","c","win:stay","49","1"
"null","<img style='border: 5px solid #808080;' src='stim/a/Field14.bmp'><img style='width:100px; height:100px; padding-right: 75px; padding-left: 75px; margin-bottom: 50px;' src='stim/win.bmp'><img style='border: 5px solid #ffffff;  padding-left:15px;' src='stim/a/Field11.bmp'>","null","html-keyboard-response","331","261266","0.0-13.0-2.14","feedback","","","","","","","",""
"null","<img style='width:200px; height:200px; margin-left: 95px; margin-right: 95px;' src='stim/fixation.png'>","null","html-keyboard-response","332","262282","0.0-13.0-0.15","fixation","","","","","","","",""
"276.0999999999767","<img src='stim/a/Field9.bmp'><img style='width:200px; height:200px; margin-bottom: 0px;' src='stim/fixation.png'><img src='stim/a/Field12.bmp'>","49","html-keyboard-response","333","262562","0.0-13.0-1.15","training","ef","0.9","valid","20","e","avoid:lose","49","1"
"null","<img style='border: 5px solid #808080;' src='stim/a/Field9.bmp'><img style='width:100px; height:100px; padding-right: 75px; padding-left: 75px; margin-bottom: 50px;' src='stim/keep_money.png'><img style='border: 5px solid #ffffff;  padding-left:15px;' src='stim/a/Field12.bmp'>","null","html-keyboard-response","334","263578","0.0-13.0-2.15","feedback","","","","","","","",""
"null","<img style='width:200px; height:200px; margin-left: 95px; margin-right: 95px;' src='stim/fixation.png'>","null","html-keyboard-response","335","264593","0.0-13.0-0.16","fixation","","","","","","","",""
"277.6000000000349","<img src='stim/a/Field5.bmp'><img style='width:200px; height:200px; margin-bottom: 0px;' src='stim/fixation.png'><img src='stim/a/Field3.bmp'>","49","html-keyboard-response","336","264874","0.0-13.0-1.16","training","ab","0.9","valid","20","a","win:stay","50","0"
"null","<img style='border: 5px solid #808080;' src='stim/a/Field5.bmp'><img style='width:100px; height:100px; padding-right: 75px; padding-left: 75px; margin-bottom: 50px;' src='stim/not_winner.png'><img style='border: 5px solid #ffffff;  padding-left:15px;' src='stim/a/Field3.bmp'>","null","html-keyboard-response","337","265890","0.0-13.0-2.16","feedback","","","","","","","",""
"null","<img style='width:200px; height:200px; margin-left: 95px; margin-right: 95px;' src='stim/fixation.png'>","null","html-keyboard-response","338","266906","0.0-13.0-0.17","fixation","","","","","","","",""
"164.20000000001164","<img src='stim/a/Field16.bmp'><img style='width:200px; height:200px; margin-bottom: 0px;' src='stim/fixation.png'><img src='stim/a/Field15.bmp'>","49","html-keyboard-response","339","267073","0.0-13.0-1.17","training","gh","0.8","valid","20","g","avoid:lose","50","0"
